CSV format: Accelerometer x value, acclerometer y value, accelerometer z value, gyroscope x value, gyroscope y value, gyroscope z value
Sample frequency: 100Hz
1534598930.560.953125,-0.35498046875,0.015869140625
1534598930.560.955078125,-0.3525390625,0.01513671875
1534598930.560.957275390625,-0.349853515625,0.00927734375
1534598930.560.96044921875,-0.35302734375,0.0068359375
1534598930.560.962158203125,-0.3564453125,0.0068359375
1534598930.560.962158203125,-0.3564453125,0.0068359375
1534598930.560.960693359375,-0.35498046875,0.00634765625
1534598930.570.96142578125,-0.353271484375,0.008544921875
1534598930.570.95654296875,-0.3544921875,0.00537109375
1534598930.570.960693359375,-0.352294921875,0.005615234375
1534598930.570.960693359375,-0.352294921875,0.005615234375
1534598930.570.9599609375,-0.35302734375,0.00390625
1534598930.570.95849609375,-0.352783203125,0.016845703125
1534598930.570.958740234375,-0.353759765625,0.015380859375
1534598930.570.961669921875,-0.352783203125,0.005859375
1534598930.580.95947265625,-0.35107421875,0.007568359375
1534598930.580.95947265625,-0.352294921875,0.016845703125
1534598930.580.958251953125,-0.353759765625,0.01953125
1534598930.580.958251953125,-0.3486328125,0.005126953125
1534598930.580.95654296875,-0.349365234375,0.009033203125
1534598930.580.958251953125,-0.35107421875,0.007568359375
1534598930.580.958251953125,-0.35107421875,0.007568359375
1534598930.580.961181640625,-0.34765625,0.010986328125
1534598930.580.961181640625,-0.34765625,0.010986328125
1534598930.590.9580078125,-0.35205078125,0.010009765625
1534598930.590.957275390625,-0.353271484375,0.0146484375
1534598930.590.959716796875,-0.3544921875,0.011474609375
1534598930.590.96044921875,-0.3505859375,0.007568359375
1534598930.590.958740234375,-0.351318359375,0.0107421875
1534598930.590.96142578125,-0.353515625,0.01513671875
1534598930.590.9619140625,-0.353759765625,0.0146484375
1534598930.60.959716796875,-0.355712890625,0.008544921875
1534598930.60.9609375,-0.353515625,0.0126953125
1534598930.60.9609375,-0.353515625,0.0126953125
1534598930.60.960693359375,-0.353759765625,0.013671875
1534598930.60.961181640625,-0.353271484375,0.01220703125
1534598930.60.963623046875,-0.354248046875,0.007080078125
1534598930.60.963623046875,-0.354248046875,0.007080078125
1534598930.60.96240234375,-0.35498046875,0.00830078125
1534598930.60.961181640625,-0.35302734375,0.0126953125
1534598930.60.962890625,-0.35107421875,0.00732421875
1534598930.60.962890625,-0.35107421875,0.00732421875
1534598930.60.96484375,-0.34814453125,0.01220703125
1534598930.610.963134765625,-0.354248046875,0.00634765625
1534598930.610.959716796875,-0.35498046875,0.00537109375
1534598930.610.9599609375,-0.351318359375,0.005126953125
1534598930.610.9599609375,-0.351318359375,0.005126953125
1534598930.610.96044921875,-0.350830078125,0.007568359375
1534598930.610.95947265625,-0.3525390625,0.013916015625
1534598930.610.9609375,-0.351806640625,0.016845703125
1534598930.610.9609375,-0.351806640625,0.016845703125
1534598930.610.961669921875,-0.350341796875,0.010986328125
1534598930.610.959228515625,-0.353759765625,0.011962890625
1534598930.620.9599609375,-0.351806640625,0.007080078125
1534598930.620.9599609375,-0.351806640625,0.007080078125
1534598930.620.9609375,-0.352294921875,0.0078125
1534598930.620.95947265625,-0.352783203125,0.01318359375
1534598930.620.95947265625,-0.352783203125,0.01318359375
1534598930.620.962646484375,-0.351318359375,0.0126953125
1534598930.620.962646484375,-0.351318359375,0.0126953125
1534598930.620.96435546875,-0.349609375,0.00732421875
1534598930.620.962646484375,-0.351318359375,0.007080078125
1534598930.620.962646484375,-0.351318359375,0.007080078125
1534598930.620.958984375,-0.352783203125,0.006103515625
1534598930.620.95849609375,-0.351806640625,0.009521484375
1534598930.620.95849609375,-0.351806640625,0.009521484375
1534598930.620.961181640625,-0.35400390625,0.010498046875
1534598930.620.961181640625,-0.35400390625,0.010498046875
1534598930.630.959716796875,-0.354736328125,0.011962890625
1534598930.630.96142578125,-0.3515625,0.012939453125
1534598930.630.96142578125,-0.3515625,0.012939453125
1534598930.630.9619140625,-0.350341796875,0.009521484375
1534598930.630.959228515625,-0.353515625,0.00927734375
1534598930.630.95947265625,-0.355712890625,0.010009765625
1534598930.630.95947265625,-0.355712890625,0.010009765625
1534598930.630.959716796875,-0.355224609375,0.011474609375
1534598930.630.959228515625,-0.354736328125,0.01025390625
1534598930.630.959228515625,-0.354736328125,0.01025390625
1534598930.630.95849609375,-0.355224609375,0.01171875
1534598930.630.95849609375,-0.355224609375,0.01171875
1534598930.630.95947265625,-0.354736328125,0.011962890625
1534598930.630.95849609375,-0.353515625,0.007568359375
1534598930.630.95849609375,-0.353515625,0.007568359375
1534598930.640.956787109375,-0.3525390625,0.00732421875
1534598930.640.956787109375,-0.3525390625,0.00732421875
1534598930.640.957275390625,-0.35595703125,0.01171875
1534598930.640.959228515625,-0.35595703125,0.015625
1534598930.640.959228515625,-0.35595703125,0.015625
1534598930.640.9619140625,-0.3564453125,0.016357421875
1534598930.640.9619140625,-0.3564453125,0.016357421875
1534598930.640.961669921875,-0.358154296875,0.010498046875
1534598930.640.958740234375,-0.35693359375,0.00439453125
1534598930.640.958740234375,-0.35693359375,0.00439453125
1534598930.640.95703125,-0.35595703125,0.006591796875
1534598930.640.955810546875,-0.353271484375,0.007568359375
1534598930.640.955810546875,-0.353271484375,0.007568359375
1534598930.640.9560546875,-0.353759765625,0.005126953125
1534598930.640.9560546875,-0.353759765625,0.005126953125
1534598930.640.9580078125,-0.355224609375,0.011474609375
1534598930.640.95556640625,-0.35546875,0.01513671875
1534598930.650.95556640625,-0.35546875,0.01513671875
1534598930.650.955078125,-0.35400390625,0.01123046875
1534598930.650.958984375,-0.352783203125,0.00927734375
1534598930.650.958984375,-0.352783203125,0.00927734375
1534598930.650.9599609375,-0.353515625,0.009765625
1534598930.650.9599609375,-0.353515625,0.009765625
1534598930.650.96044921875,-0.354736328125,0.00732421875
1534598930.650.96044921875,-0.354736328125,0.00732421875
1534598930.650.9599609375,-0.35498046875,0.009033203125
1534598930.650.959228515625,-0.356689453125,0.010009765625
1534598930.650.959228515625,-0.356689453125,0.010009765625
1534598930.650.960693359375,-0.357177734375,0.0068359375
1534598930.650.960693359375,-0.357177734375,0.0068359375
1534598930.650.960693359375,-0.354248046875,0.0068359375
1534598930.650.96142578125,-0.354736328125,0.005859375
1534598930.650.96142578125,-0.354736328125,0.005859375
1534598930.660.960205078125,-0.3564453125,0.007568359375
1534598930.660.956298828125,-0.352294921875,0.00537109375
1534598930.660.956298828125,-0.352294921875,0.00537109375
1534598930.660.954833984375,-0.352294921875,0.011962890625
1534598930.660.954833984375,-0.352294921875,0.011962890625
1534598930.660.95703125,-0.356201171875,0.013427734375
1534598930.660.96142578125,-0.354736328125,0.00830078125
1534598930.660.96142578125,-0.354736328125,0.00830078125
1534598930.660.96142578125,-0.352783203125,0.009521484375
1534598930.660.96142578125,-0.352783203125,0.009521484375
1534598930.660.95751953125,-0.352294921875,0.008056640625
1534598930.660.956787109375,-0.35205078125,0.011474609375
1534598930.660.956787109375,-0.35205078125,0.011474609375
1534598930.660.95849609375,-0.355224609375,0.012939453125
1534598930.660.95849609375,-0.355224609375,0.012939453125
1534598930.660.9599609375,-0.3564453125,0.0068359375
1534598930.660.9599609375,-0.3515625,0.003173828125
1534598930.670.9599609375,-0.3515625,0.003173828125
1534598930.670.9599609375,-0.3486328125,0.0068359375
1534598930.670.9599609375,-0.3486328125,0.0068359375
1534598930.670.958740234375,-0.35205078125,0.01123046875
1534598930.670.95751953125,-0.35400390625,0.010986328125
1534598930.670.95751953125,-0.35400390625,0.010986328125
1534598930.670.956298828125,-0.35595703125,0.01220703125
1534598930.670.956298828125,-0.35595703125,0.01220703125
1534598930.670.956298828125,-0.356689453125,0.009033203125
1534598930.670.9609375,-0.3515625,0.00634765625
1534598930.670.9609375,-0.3515625,0.00634765625
1534598930.670.96142578125,-0.3486328125,0.0107421875
1534598930.670.96142578125,-0.34814453125,0.012939453125
1534598930.670.96142578125,-0.34814453125,0.012939453125
1534598930.680.962158203125,-0.348876953125,0.01220703125
1534598930.680.9599609375,-0.35302734375,0.014892578125
1534598930.690.960205078125,-0.35595703125,0.007080078125
1534598930.690.959228515625,-0.35400390625,0.01416015625
1534598930.690.960693359375,-0.35498046875,0.0126953125
1534598930.690.963134765625,-0.356201171875,0.01123046875
1534598930.690.9619140625,-0.35546875,0.012939453125
1534598930.690.9619140625,-0.35546875,0.012939453125
1534598930.690.96044921875,-0.355712890625,0.0087890625
1534598930.690.961669921875,-0.35302734375,0.005126953125
1534598930.690.960693359375,-0.35302734375,0.0078125
1534598930.690.960693359375,-0.35302734375,0.0078125
1534598930.690.9580078125,-0.352294921875,0.01611328125
1534598930.690.96044921875,-0.349853515625,0.008544921875
1534598930.70.959716796875,-0.350341796875,0.00244140625
1534598930.70.959716796875,-0.350341796875,0.00244140625
1534598930.70.960205078125,-0.352294921875,0.004150390625
1534598930.70.959228515625,-0.352294921875,0.01025390625
1534598930.70.960205078125,-0.35400390625,0.00830078125
1534598930.70.962890625,-0.352294921875,0.005859375
1534598930.70.962890625,-0.352294921875,0.005859375
1534598930.70.961669921875,-0.350341796875,0.006103515625
1534598930.70.960693359375,-0.353759765625,0.009765625
1534598930.710.9609375,-0.353759765625,0.01416015625
1534598930.710.960205078125,-0.35205078125,0.0107421875
1534598930.710.95751953125,-0.35009765625,0.01171875
1534598930.720.9619140625,-0.349853515625,0.006591796875
1534598930.720.9619140625,-0.349853515625,0.006591796875
1534598930.720.9638671875,-0.35205078125,0.00537109375
1534598930.720.962158203125,-0.353271484375,0.0126953125
1534598930.720.958984375,-0.35546875,0.01171875
1534598930.720.95751953125,-0.35205078125,0.008056640625
1534598930.720.95751953125,-0.35205078125,0.008056640625
1534598930.720.957763671875,-0.35205078125,0.012939453125
1534598930.720.961181640625,-0.35595703125,0.0146484375
1534598930.720.96240234375,-0.355712890625,0.015380859375
1534598930.720.956787109375,-0.35302734375,0.0185546875
1534598930.730.955078125,-0.351318359375,0.016845703125
1534598930.730.958251953125,-0.35302734375,0.010009765625
1534598930.730.957275390625,-0.35205078125,0.00830078125
1534598930.730.958251953125,-0.352783203125,0.013916015625
1534598930.730.95751953125,-0.35546875,0.00732421875
1534598930.730.95751953125,-0.35546875,0.00732421875
1534598930.730.960205078125,-0.3544921875,0.01220703125
1534598930.730.96142578125,-0.352783203125,0.015869140625
1534598930.730.9599609375,-0.354736328125,0.010986328125
1534598930.740.957275390625,-0.351806640625,0.008056640625
1534598930.740.957275390625,-0.351806640625,0.008056640625
1534598930.740.959228515625,-0.352783203125,0.008544921875
1534598930.740.961181640625,-0.35498046875,0.01220703125
1534598930.740.961669921875,-0.35498046875,0.009765625
1534598930.740.95751953125,-0.353271484375,0.00634765625
1534598930.740.955078125,-0.351318359375,0.010009765625
1534598930.740.955078125,-0.351318359375,0.010009765625
1534598930.740.9580078125,-0.353759765625,0.0078125
1534598930.740.9609375,-0.356201171875,0.004638671875
1534598930.740.9609375,-0.356201171875,0.004638671875
1534598930.740.961669921875,-0.356689453125,0.008544921875
1534598930.740.961669921875,-0.356689453125,0.008544921875
1534598930.750.96044921875,-0.35546875,0.009033203125
1534598930.750.959716796875,-0.353759765625,0.0087890625
1534598930.750.962646484375,-0.353759765625,0.0107421875
1534598930.750.962646484375,-0.353759765625,0.0107421875
1534598930.750.9609375,-0.3525390625,0.011962890625
1534598930.750.9609375,-0.3525390625,0.011962890625
1534598930.750.958984375,-0.3544921875,0.01123046875
1534598930.750.959716796875,-0.354248046875,0.01171875
1534598930.750.959716796875,-0.354248046875,0.01171875
1534598930.750.959228515625,-0.350830078125,0.013427734375
1534598930.750.961181640625,-0.350341796875,0.011474609375
1534598930.750.961181640625,-0.35205078125,0.0107421875
1534598930.750.961181640625,-0.35205078125,0.0107421875
1534598930.750.95849609375,-0.3544921875,0.011474609375
1534598930.760.960693359375,-0.352783203125,0.00927734375
1534598930.760.960693359375,-0.352783203125,0.00927734375
1534598930.760.963623046875,-0.350341796875,0.011962890625
1534598930.760.963623046875,-0.350341796875,0.011962890625
1534598930.760.960205078125,-0.349853515625,0.0087890625
1534598930.760.95751953125,-0.351318359375,0.007568359375
1534598930.760.95751953125,-0.351318359375,0.007568359375
1534598930.760.95654296875,-0.35205078125,0.00927734375
1534598930.760.95654296875,-0.35205078125,0.00927734375
1534598930.760.955810546875,-0.35302734375,0.01171875
1534598930.760.96044921875,-0.35205078125,0.010498046875
1534598930.760.96044921875,-0.35205078125,0.010498046875
1534598930.760.963134765625,-0.3525390625,0.006591796875
1534598930.760.963134765625,-0.3525390625,0.006591796875
1534598930.760.958740234375,-0.3525390625,0.00927734375
1534598930.760.958984375,-0.350341796875,0.011474609375
1534598930.760.958984375,-0.350341796875,0.011474609375
1534598930.770.96044921875,-0.35009765625,0.008056640625
1534598930.770.96044921875,-0.35009765625,0.008056640625
1534598930.770.9619140625,-0.351806640625,0.006591796875
1534598930.770.960693359375,-0.352783203125,0.011474609375
1534598930.770.960693359375,-0.352783203125,0.011474609375
1534598930.770.9599609375,-0.35302734375,0.015869140625
1534598930.770.9599609375,-0.35302734375,0.015869140625
1534598930.770.959716796875,-0.35205078125,0.013671875
1534598930.770.959716796875,-0.35205078125,0.013671875
1534598930.770.9580078125,-0.351806640625,0.010986328125
1534598930.770.96044921875,-0.352783203125,0.014404296875
1534598930.770.96044921875,-0.352783203125,0.014404296875
1534598930.770.961181640625,-0.3505859375,0.01123046875
1534598930.770.961181640625,-0.3505859375,0.01123046875
1534598930.770.958984375,-0.349365234375,0.007568359375
1534598930.770.95703125,-0.35400390625,0.01025390625
1534598930.770.95703125,-0.35400390625,0.01025390625
1534598930.780.958984375,-0.35546875,0.009765625
1534598930.780.958984375,-0.35546875,0.009765625
1534598930.780.96044921875,-0.351318359375,0.00634765625
1534598930.780.9609375,-0.350341796875,0.00830078125
1534598930.780.9609375,-0.350341796875,0.00830078125
1534598930.780.961181640625,-0.35400390625,0.012939453125
1534598930.780.961181640625,-0.35400390625,0.012939453125
1534598930.780.961669921875,-0.356689453125,0.010009765625
1534598930.780.96240234375,-0.355224609375,0.007080078125
1534598930.780.96240234375,-0.355224609375,0.007080078125
1534598930.780.961181640625,-0.353515625,0.004638671875
1534598930.780.961181640625,-0.353515625,0.004638671875
1534598930.780.961669921875,-0.356689453125,0.001708984375
1534598930.780.961669921875,-0.356689453125,0.001708984375
1534598930.780.958251953125,-0.35791015625,0.004638671875
1534598930.780.955322265625,-0.356689453125,0.009765625
1534598930.780.955322265625,-0.356689453125,0.009765625
1534598930.790.958251953125,-0.354248046875,0.0107421875
1534598930.790.958251953125,-0.354248046875,0.0107421875
1534598930.790.963134765625,-0.3515625,0.0107421875
1534598930.790.965576171875,-0.352783203125,0.008056640625
1534598930.790.965576171875,-0.352783203125,0.008056640625
1534598930.790.9638671875,-0.353271484375,0.0068359375
1534598930.790.9638671875,-0.353271484375,0.0068359375
1534598930.790.9599609375,-0.35302734375,0.010986328125
1534598930.790.9599609375,-0.35302734375,0.010986328125
1534598930.790.9599609375,-0.3515625,0.012451171875
1534598930.790.9619140625,-0.35107421875,0.017333984375
1534598930.790.9619140625,-0.35107421875,0.017333984375
1534598930.790.959716796875,-0.353271484375,0.0185546875
1534598930.790.959716796875,-0.353271484375,0.0185546875
1534598930.790.956298828125,-0.354736328125,0.01220703125
1534598930.790.953857421875,-0.3525390625,0.00830078125
1534598930.790.953857421875,-0.3525390625,0.00830078125
1534598930.790.956298828125,-0.353515625,0.00927734375
1534598930.80.956298828125,-0.353515625,0.00927734375
1534598930.80.9609375,-0.353271484375,0.00830078125
1534598930.80.964111328125,-0.3525390625,0.005126953125
1534598930.80.964111328125,-0.3525390625,0.005126953125
1534598930.80.958251953125,-0.3525390625,0.008544921875
1534598930.80.9541015625,-0.351318359375,0.01025390625
1534598930.80.9541015625,-0.351318359375,0.01025390625
1534598930.80.958984375,-0.351318359375,0.009033203125
1534598930.80.958984375,-0.351318359375,0.009033203125
1534598930.80.9609375,-0.3505859375,0.009033203125
1534598930.80.960205078125,-0.354736328125,0.005859375
1534598930.80.960205078125,-0.354736328125,0.005859375
1534598930.80.958984375,-0.354736328125,0.008544921875
1534598930.80.958984375,-0.354736328125,0.008544921875
1534598930.80.95654296875,-0.353759765625,0.011962890625
1534598930.80.95751953125,-0.356689453125,0.01171875
1534598930.810.95751953125,-0.356689453125,0.01171875
1534598930.810.95849609375,-0.355224609375,0.014892578125
1534598930.810.95849609375,-0.355224609375,0.014892578125
1534598930.810.95751953125,-0.35546875,0.009521484375
1534598930.810.956298828125,-0.355224609375,0.00341796875
1534598930.810.956298828125,-0.355224609375,0.00341796875
1534598930.810.957275390625,-0.3515625,0.0107421875
1534598930.810.957275390625,-0.3515625,0.0107421875
1534598930.810.958740234375,-0.35009765625,0.00927734375
1534598930.810.958740234375,-0.35009765625,0.00927734375
1534598930.810.960693359375,-0.35302734375,0.00634765625
1534598930.810.96142578125,-0.3544921875,0.012451171875
1534598930.810.96142578125,-0.3544921875,0.012451171875
1534598930.810.957763671875,-0.3515625,0.012939453125
1534598930.810.957763671875,-0.3515625,0.012939453125
1534598930.810.957763671875,-0.350341796875,0.01123046875
1534598930.810.958251953125,-0.352294921875,0.012939453125
1534598930.820.958251953125,-0.352294921875,0.012939453125
1534598930.820.957275390625,-0.351806640625,0.012939453125
1534598930.820.957275390625,-0.351806640625,0.012939453125
1534598930.820.95703125,-0.3505859375,0.009033203125
1534598930.820.95849609375,-0.349365234375,0.010498046875
1534598930.820.95849609375,-0.349365234375,0.010498046875
1534598930.820.961181640625,-0.35107421875,0.01611328125
1534598930.820.961181640625,-0.35107421875,0.01611328125
1534598930.820.96240234375,-0.35498046875,0.016357421875
1534598930.820.96240234375,-0.35498046875,0.016357421875
1534598930.820.960205078125,-0.352783203125,0.0126953125
1534598930.820.958251953125,-0.3515625,0.0078125
1534598930.820.958251953125,-0.3515625,0.0078125
1534598930.820.95947265625,-0.349853515625,0.00830078125
1534598930.820.957275390625,-0.35009765625,0.011962890625
1534598930.820.957275390625,-0.35009765625,0.011962890625
1534598930.830.957763671875,-0.354248046875,0.0087890625
1534598930.830.963134765625,-0.35400390625,0.004638671875
1534598930.830.960693359375,-0.3544921875,0.003662109375
1534598930.830.95751953125,-0.355712890625,0.00927734375
1534598930.830.95751953125,-0.355712890625,0.00927734375
1534598930.830.95751953125,-0.3544921875,0.008056640625
1534598930.830.95751953125,-0.3544921875,0.008056640625
1534598930.830.958251953125,-0.35205078125,0.01025390625
1534598930.830.958251953125,-0.35205078125,0.01025390625
1534598930.830.959716796875,-0.34912109375,0.011962890625
1534598930.830.959716796875,-0.34912109375,0.011962890625
1534598930.830.96142578125,-0.34814453125,0.007568359375
1534598930.830.96142578125,-0.34814453125,0.007568359375
1534598930.830.958740234375,-0.34912109375,0.010498046875
1534598930.830.958740234375,-0.34912109375,0.010498046875
1534598930.840.955810546875,-0.35302734375,0.014892578125
1534598930.850.959716796875,-0.353271484375,0.013916015625
1534598930.850.965087890625,-0.352783203125,0.008544921875
1534598930.850.9619140625,-0.35107421875,0.01318359375
1534598930.850.96142578125,-0.353759765625,0.012451171875
1534598930.850.96142578125,-0.353759765625,0.012451171875
1534598930.850.962646484375,-0.35546875,0.010498046875
1534598930.850.960693359375,-0.353515625,0.01220703125
1534598930.850.960693359375,-0.353515625,0.01220703125
1534598930.850.959228515625,-0.35107421875,0.005126953125
1534598930.850.95556640625,-0.34912109375,0.007568359375
1534598930.850.95556640625,-0.34912109375,0.007568359375
1534598930.850.955322265625,-0.35009765625,0.01611328125
1534598930.850.95947265625,-0.35205078125,0.0146484375
1534598930.850.95947265625,-0.35205078125,0.0146484375
1534598930.860.959228515625,-0.353271484375,0.014404296875
1534598930.860.958740234375,-0.351318359375,0.008544921875
1534598930.860.959228515625,-0.353271484375,0.0078125
1534598930.860.959228515625,-0.353271484375,0.0078125
1534598930.860.9609375,-0.355224609375,0.004638671875
1534598930.860.961181640625,-0.3544921875,0.00634765625
1534598930.870.961181640625,-0.3544921875,0.00634765625
1534598930.870.957763671875,-0.3505859375,0.00830078125
1534598930.870.956787109375,-0.3486328125,0.0068359375
1534598930.870.956787109375,-0.3486328125,0.0068359375
1534598930.870.957763671875,-0.351318359375,0.01318359375
1534598930.870.959228515625,-0.352294921875,0.017822265625
1534598930.870.959228515625,-0.352294921875,0.017822265625
1534598930.870.96142578125,-0.3525390625,0.00927734375
1534598930.870.960205078125,-0.354248046875,0.008056640625
1534598930.870.9580078125,-0.354736328125,0.015380859375
1534598930.870.9580078125,-0.354736328125,0.015380859375
1534598930.870.959228515625,-0.352783203125,0.013916015625
1534598930.870.959228515625,-0.352783203125,0.013916015625
1534598930.870.959716796875,-0.35107421875,0.01123046875
1534598930.880.95947265625,-0.3515625,0.011474609375
1534598930.880.95947265625,-0.351318359375,0.00537109375
1534598930.880.95947265625,-0.351318359375,0.00537109375
1534598930.880.958740234375,-0.351318359375,0.007568359375
1534598930.880.958740234375,-0.351318359375,0.007568359375
1534598930.880.958984375,-0.352783203125,0.010009765625
1534598930.880.95849609375,-0.35205078125,0.01171875
1534598930.880.95849609375,-0.35205078125,0.01171875
1534598930.880.955322265625,-0.351318359375,0.01220703125
1534598930.880.95654296875,-0.352294921875,0.009765625
1534598930.880.95654296875,-0.352294921875,0.009765625
1534598930.880.959716796875,-0.3505859375,0.00732421875
1534598930.890.960693359375,-0.3525390625,0.008544921875
1534598930.890.960693359375,-0.3525390625,0.008544921875
1534598930.890.958984375,-0.35595703125,0.010986328125
1534598930.890.958984375,-0.35595703125,0.010986328125
1534598930.890.957275390625,-0.352294921875,0.009765625
1534598930.890.957275390625,-0.352294921875,0.009765625
1534598930.890.957763671875,-0.34765625,0.004638671875
1534598930.890.957763671875,-0.34765625,0.004638671875
1534598930.890.954833984375,-0.349853515625,0.004638671875
1534598930.890.954833984375,-0.349853515625,0.004638671875
1534598930.890.957763671875,-0.353515625,0.006103515625
1534598930.890.957763671875,-0.353515625,0.006103515625
1534598930.890.96044921875,-0.3525390625,0.0029296875
1534598930.890.96044921875,-0.3525390625,0.0029296875
1534598930.890.958251953125,-0.3515625,0.00634765625
1534598930.890.958251953125,-0.3515625,0.00634765625
1534598930.890.9609375,-0.353271484375,0.010986328125
1534598930.890.961181640625,-0.352294921875,0.00634765625
1534598930.890.961181640625,-0.352294921875,0.00634765625
1534598930.90.961181640625,-0.352294921875,0.00634765625
1534598930.90.96240234375,-0.3515625,0.003662109375
1534598930.90.96240234375,-0.3515625,0.003662109375
1534598930.90.962890625,-0.34912109375,0.009033203125
1534598930.90.962890625,-0.34912109375,0.009033203125
1534598930.90.95849609375,-0.3486328125,0.01123046875
1534598930.90.95849609375,-0.3486328125,0.01123046875
1534598930.90.95849609375,-0.35302734375,0.0087890625
1534598930.90.95849609375,-0.35302734375,0.0087890625
1534598930.90.9599609375,-0.353759765625,0.008056640625
1534598930.90.9599609375,-0.353759765625,0.008056640625
1534598930.90.958740234375,-0.35205078125,0.0087890625
1534598930.90.958740234375,-0.35205078125,0.0087890625
1534598930.90.957763671875,-0.351806640625,0.00634765625
1534598930.90.95849609375,-0.35400390625,0.007568359375
1534598930.90.95849609375,-0.35400390625,0.007568359375
1534598930.90.95849609375,-0.35400390625,0.007568359375
1534598930.90.958984375,-0.354248046875,0.0107421875
1534598930.90.95947265625,-0.353515625,0.011962890625
1534598930.90.95947265625,-0.353515625,0.011962890625
1534598930.910.957763671875,-0.3544921875,0.013427734375
1534598930.910.957763671875,-0.3544921875,0.013427734375
1534598930.910.959716796875,-0.356201171875,0.009765625
1534598930.910.959716796875,-0.356201171875,0.009765625
1534598930.910.962646484375,-0.355712890625,0.00830078125
1534598930.910.962646484375,-0.355712890625,0.00830078125
1534598930.910.958984375,-0.35302734375,0.0107421875
1534598930.910.958984375,-0.35302734375,0.0107421875
1534598930.910.953857421875,-0.3505859375,0.0078125
1534598930.910.953857421875,-0.3505859375,0.0078125
1534598930.910.9541015625,-0.348876953125,0.0048828125
1534598930.910.9541015625,-0.348876953125,0.0048828125
1534598930.910.956787109375,-0.35205078125,0.005859375
1534598930.910.956787109375,-0.35205078125,0.005859375
1534598930.910.960205078125,-0.357666015625,0.010009765625
1534598930.910.960205078125,-0.357666015625,0.010009765625
1534598930.910.9638671875,-0.3564453125,0.00927734375
1534598930.910.9638671875,-0.3564453125,0.00927734375
1534598930.910.961669921875,-0.35400390625,0.00927734375
1534598930.910.961669921875,-0.35400390625,0.00927734375
1534598930.920.9599609375,-0.353515625,0.012939453125
1534598930.920.9599609375,-0.353515625,0.012939453125
1534598930.920.961669921875,-0.353271484375,0.008056640625
1534598930.920.961669921875,-0.353271484375,0.008056640625
1534598930.920.960693359375,-0.353515625,0.011962890625
1534598930.920.960693359375,-0.353515625,0.011962890625
1534598930.920.95947265625,-0.35546875,0.015625
1534598930.920.95947265625,-0.35546875,0.015625
1534598930.920.959228515625,-0.35546875,0.012451171875
1534598930.920.959228515625,-0.35546875,0.012451171875
1534598930.920.95947265625,-0.353271484375,0.01171875
1534598930.920.95947265625,-0.353271484375,0.01171875
1534598930.920.95947265625,-0.352294921875,0.01025390625
1534598930.920.95947265625,-0.352294921875,0.01025390625
1534598930.920.9609375,-0.35107421875,0.009033203125
1534598930.920.9609375,-0.35107421875,0.009033203125
1534598930.920.96142578125,-0.35107421875,0.0087890625
1534598930.920.961181640625,-0.3525390625,0.0107421875
1534598930.920.961181640625,-0.3525390625,0.0107421875
1534598930.930.958984375,-0.355712890625,0.012451171875
1534598930.930.958984375,-0.355712890625,0.012451171875
1534598930.930.960205078125,-0.356201171875,0.01318359375
1534598930.930.960205078125,-0.356201171875,0.01318359375
1534598930.930.962158203125,-0.35205078125,0.013916015625
1534598930.930.962158203125,-0.35205078125,0.013916015625
1534598930.930.959228515625,-0.349609375,0.017822265625
1534598930.930.959228515625,-0.349609375,0.017822265625
1534598930.930.958740234375,-0.351806640625,0.016357421875
1534598930.930.958740234375,-0.351806640625,0.016357421875
1534598930.930.95849609375,-0.351318359375,0.01171875
1534598930.930.95849609375,-0.351318359375,0.01171875
1534598930.930.957275390625,-0.349609375,0.00927734375
1534598930.930.957275390625,-0.349609375,0.00927734375
1534598930.930.95849609375,-0.348876953125,0.01123046875
1534598930.930.95849609375,-0.348876953125,0.01123046875
1534598930.930.9599609375,-0.352783203125,0.008544921875
1534598930.930.9599609375,-0.352783203125,0.008544921875
1534598930.930.96142578125,-0.35693359375,0.00439453125
1534598930.930.96142578125,-0.35693359375,0.00439453125
1534598930.930.962890625,-0.35400390625,0.010498046875
1534598930.940.962890625,-0.35400390625,0.010498046875
1534598930.940.960205078125,-0.3515625,0.01171875
1534598930.940.960205078125,-0.3515625,0.01171875
1534598930.940.95947265625,-0.351318359375,0.008056640625
1534598930.940.95947265625,-0.351318359375,0.008056640625
1534598930.940.960205078125,-0.352294921875,0.006591796875
1534598930.940.960205078125,-0.352294921875,0.006591796875
1534598930.940.95947265625,-0.349609375,0.008056640625
1534598930.940.95947265625,-0.349609375,0.008056640625
1534598930.940.961669921875,-0.34912109375,0.0126953125
1534598930.940.961669921875,-0.34912109375,0.0126953125
1534598930.940.962158203125,-0.3525390625,0.0107421875
1534598930.940.962158203125,-0.3525390625,0.0107421875
1534598930.940.95654296875,-0.3525390625,0.0087890625
1534598930.940.95654296875,-0.3525390625,0.0087890625
1534598930.940.95654296875,-0.35302734375,0.013427734375
1534598930.940.95654296875,-0.35302734375,0.013427734375
1534598930.940.958984375,-0.353759765625,0.014892578125
1534598930.940.958984375,-0.353759765625,0.014892578125
1534598930.950.958251953125,-0.351318359375,0.00927734375
1534598930.950.958251953125,-0.351318359375,0.00927734375
1534598930.950.95947265625,-0.349365234375,0.007568359375
1534598930.950.95947265625,-0.349365234375,0.007568359375
1534598930.950.959228515625,-0.35302734375,0.011962890625
1534598930.950.959228515625,-0.35302734375,0.011962890625
1534598930.950.95751953125,-0.353271484375,0.01171875
1534598930.950.95751953125,-0.353271484375,0.01171875
1534598930.950.957763671875,-0.35009765625,0.01318359375
1534598930.950.957763671875,-0.35009765625,0.01318359375
1534598930.950.95947265625,-0.349365234375,0.012451171875
1534598930.950.95947265625,-0.349365234375,0.012451171875
1534598930.950.961669921875,-0.347900390625,0.0107421875
1534598930.950.961669921875,-0.347900390625,0.0107421875
1534598930.950.9638671875,-0.35107421875,0.01123046875
1534598930.950.9638671875,-0.35107421875,0.01123046875
1534598930.950.963623046875,-0.354248046875,0.011474609375
1534598930.950.963623046875,-0.354248046875,0.011474609375
1534598930.950.959716796875,-0.354736328125,0.01416015625
1534598930.950.959716796875,-0.354736328125,0.01416015625
1534598930.950.956787109375,-0.355224609375,0.01708984375
1534598930.960.956787109375,-0.355224609375,0.01708984375
1534598930.960.959228515625,-0.353515625,0.012451171875
1534598930.960.959228515625,-0.353515625,0.012451171875
1534598930.960.9619140625,-0.354736328125,0.005859375
1534598930.960.9619140625,-0.354736328125,0.005859375
1534598930.960.962158203125,-0.351806640625,0.00634765625
1534598930.960.962158203125,-0.351806640625,0.00634765625
1534598930.960.96142578125,-0.351318359375,0.011962890625
1534598930.960.96142578125,-0.351318359375,0.011962890625
1534598930.960.959716796875,-0.353759765625,0.01171875
1534598930.960.959716796875,-0.353759765625,0.01171875
1534598930.960.960693359375,-0.3515625,0.00732421875
1534598930.960.960693359375,-0.3515625,0.00732421875
1534598930.960.962890625,-0.34912109375,0.007080078125
1534598930.960.962890625,-0.34912109375,0.007080078125
1534598930.960.961669921875,-0.3466796875,0.00732421875
1534598930.960.961669921875,-0.3466796875,0.00732421875
1534598930.960.959228515625,-0.349365234375,0.009521484375
1534598930.960.959228515625,-0.349365234375,0.009521484375
1534598930.960.95751953125,-0.351318359375,0.010498046875
1534598930.970.95751953125,-0.351318359375,0.010498046875
1534598930.970.956298828125,-0.352294921875,0.011474609375
1534598930.970.956298828125,-0.352294921875,0.011474609375
1534598930.970.958740234375,-0.354248046875,0.0078125
1534598930.970.958740234375,-0.354248046875,0.0078125
1534598930.970.959228515625,-0.35205078125,0.006591796875
1534598930.970.959228515625,-0.35205078125,0.006591796875
1534598930.970.9580078125,-0.352294921875,0.011474609375
1534598930.970.9580078125,-0.352294921875,0.011474609375
1534598930.970.959716796875,-0.353271484375,0.01416015625
1534598930.970.959716796875,-0.353271484375,0.01416015625
1534598930.970.9599609375,-0.351806640625,0.012939453125
1534598930.970.9599609375,-0.351806640625,0.012939453125
1534598930.970.960693359375,-0.351806640625,0.011474609375
1534598930.970.960693359375,-0.351806640625,0.011474609375
1534598930.970.962646484375,-0.3525390625,0.006591796875
1534598930.970.962646484375,-0.3525390625,0.006591796875
1534598930.970.96142578125,-0.354248046875,0.005859375
1534598930.970.96142578125,-0.354248046875,0.005859375
1534598930.970.95947265625,-0.35546875,0.00537109375
1534598930.980.95947265625,-0.35546875,0.00537109375
1534598930.980.9599609375,-0.35400390625,0.000244140625
1534598930.980.9599609375,-0.35400390625,0.000244140625
1534598930.980.959716796875,-0.354248046875,0.00244140625
1534598930.980.959716796875,-0.354248046875,0.00244140625
1534598930.980.95947265625,-0.35595703125,0.005615234375
1534598930.980.95947265625,-0.35595703125,0.005615234375
1534598930.980.958984375,-0.3515625,0.006103515625
1534598930.980.958984375,-0.3515625,0.006103515625
1534598930.980.95947265625,-0.347900390625,0.008544921875
1534598930.980.95947265625,-0.347900390625,0.008544921875
1534598930.980.96044921875,-0.34912109375,0.0126953125
1534598930.980.96044921875,-0.34912109375,0.0126953125
1534598930.980.960205078125,-0.353271484375,0.009521484375
1534598930.980.960205078125,-0.353271484375,0.009521484375
1534598930.980.959716796875,-0.357177734375,0.005615234375
1534598930.980.959716796875,-0.357177734375,0.005615234375
1534598930.980.959716796875,-0.35595703125,0.0087890625
1534598930.980.959716796875,-0.35595703125,0.0087890625
1534598930.980.9609375,-0.353515625,0.009765625
1534598930.990.9609375,-0.353515625,0.009765625
1534598930.990.9609375,-0.35400390625,0.009033203125
1534598930.990.9609375,-0.35400390625,0.009033203125
1534598930.990.961181640625,-0.351806640625,0.008544921875
1534598930.990.961181640625,-0.351806640625,0.008544921875
1534598930.990.958984375,-0.35009765625,0.0068359375
1534598931.00.9609375,-0.352783203125,0.009033203125
1534598931.00.960693359375,-0.352294921875,0.01123046875
1534598931.00.961669921875,-0.35302734375,0.01025390625
1534598931.00.960205078125,-0.35302734375,0.008544921875
1534598931.00.960205078125,-0.35302734375,0.008544921875
1534598931.00.961181640625,-0.35302734375,0.0107421875
1534598931.00.962890625,-0.351806640625,0.009033203125
1534598931.00.962890625,-0.351806640625,0.009033203125
1534598931.00.9609375,-0.3525390625,0.01123046875
1534598931.00.9609375,-0.3525390625,0.01123046875
1534598931.00.958740234375,-0.35693359375,0.013427734375
1534598931.00.958740234375,-0.35693359375,0.013427734375
1534598931.010.958251953125,-0.358154296875,0.00732421875
1534598931.010.957275390625,-0.35498046875,0.006103515625
1534598931.010.957275390625,-0.35498046875,0.006103515625
1534598931.010.957275390625,-0.353515625,0.00830078125
1534598931.010.958984375,-0.353515625,0.00732421875
1534598931.010.958984375,-0.353515625,0.00732421875
1534598931.010.960693359375,-0.353271484375,0.0078125
1534598931.010.96044921875,-0.352294921875,0.018310546875
1534598931.010.96044921875,-0.352294921875,0.018310546875
1534598931.010.958984375,-0.3505859375,0.013427734375
1534598931.010.95654296875,-0.35205078125,0.004150390625
1534598931.010.95654296875,-0.35205078125,0.004150390625
1534598931.010.960693359375,-0.35205078125,0.005126953125
1534598931.010.962646484375,-0.354248046875,0.00732421875
1534598931.020.962646484375,-0.354248046875,0.00732421875
1534598931.020.958984375,-0.359375,0.014892578125
1534598931.020.95947265625,-0.35791015625,0.013671875
1534598931.020.95849609375,-0.35498046875,0.011474609375
1534598931.030.95849609375,-0.35498046875,0.011474609375
1534598931.030.957275390625,-0.352294921875,0.005615234375
1534598931.030.95849609375,-0.35498046875,0.0048828125
1534598931.030.9580078125,-0.35546875,0.00537109375
1534598931.030.9580078125,-0.35546875,0.00537109375
1534598931.030.9580078125,-0.353515625,0.009765625
1534598931.030.9580078125,-0.353515625,0.009765625
1534598931.030.96044921875,-0.353271484375,0.01513671875
1534598931.030.959228515625,-0.350830078125,0.015625
1534598931.030.959228515625,-0.350830078125,0.015625
1534598931.030.960205078125,-0.34912109375,0.009765625
1534598931.030.960205078125,-0.34912109375,0.009765625
1534598931.030.960693359375,-0.352294921875,0.0078125
1534598931.030.960693359375,-0.352294921875,0.0078125
1534598931.030.959228515625,-0.35400390625,0.0048828125
1534598931.030.96044921875,-0.3525390625,0.0029296875
1534598931.040.96044921875,-0.3525390625,0.0029296875
1534598931.040.963623046875,-0.354248046875,0.00830078125
1534598931.040.961669921875,-0.355712890625,0.017578125
1534598931.040.961669921875,-0.355712890625,0.017578125
1534598931.040.96044921875,-0.353271484375,0.0185546875
1534598931.040.961669921875,-0.353759765625,0.009521484375
1534598931.040.961669921875,-0.353759765625,0.009521484375
1534598931.040.961181640625,-0.354736328125,0.009521484375
1534598931.040.958251953125,-0.35205078125,0.013916015625
1534598931.040.958251953125,-0.35205078125,0.013916015625
1534598931.040.961181640625,-0.35205078125,0.012939453125
1534598931.040.961181640625,-0.35205078125,0.012939453125
1534598931.040.963134765625,-0.35205078125,0.010498046875
1534598931.040.963134765625,-0.35205078125,0.010498046875
1534598931.050.963134765625,-0.35205078125,0.010498046875
1534598931.050.9609375,-0.353515625,0.00634765625
1534598931.050.95849609375,-0.353271484375,0.009033203125
1534598931.050.95849609375,-0.353271484375,0.009033203125
1534598931.050.959716796875,-0.3505859375,0.014892578125
1534598931.050.959716796875,-0.3505859375,0.014892578125
1534598931.050.962646484375,-0.349609375,0.01123046875
1534598931.050.962158203125,-0.3525390625,0.010009765625
1534598931.050.959716796875,-0.351318359375,0.009765625
1534598931.050.959716796875,-0.351318359375,0.009765625
1534598931.050.959716796875,-0.351318359375,0.009765625
1534598931.050.958984375,-0.35009765625,0.006591796875
1534598931.050.958984375,-0.35009765625,0.006591796875
1534598931.050.961669921875,-0.353515625,0.00732421875
1534598931.050.961669921875,-0.353515625,0.00732421875
1534598931.050.962890625,-0.358642578125,0.00927734375
1534598931.050.962890625,-0.358642578125,0.00927734375
1534598931.060.9619140625,-0.358154296875,0.01611328125
1534598931.060.9619140625,-0.358154296875,0.01611328125
1534598931.060.958740234375,-0.352783203125,0.015380859375
1534598931.060.958740234375,-0.352783203125,0.015380859375
1534598931.060.9580078125,-0.35205078125,0.008056640625
1534598931.060.958740234375,-0.353515625,-0.0009765625
1534598931.060.9609375,-0.35302734375,-0.000732421875
1534598931.060.957763671875,-0.354736328125,0.003173828125
1534598931.060.958251953125,-0.353271484375,0.0078125
1534598931.060.961669921875,-0.353515625,0.014404296875
1534598931.060.961669921875,-0.353515625,0.014404296875
1534598931.060.9599609375,-0.35205078125,0.014404296875
1534598931.060.9599609375,-0.35205078125,0.014404296875
1534598931.070.959716796875,-0.352294921875,0.010986328125
1534598931.070.959716796875,-0.352294921875,0.010986328125
1534598931.070.959716796875,-0.354248046875,0.011474609375
1534598931.070.959716796875,-0.354248046875,0.011474609375
1534598931.070.9609375,-0.356201171875,0.01318359375
1534598931.070.9609375,-0.356201171875,0.01318359375
1534598931.070.96142578125,-0.354248046875,0.01513671875
1534598931.070.96142578125,-0.354248046875,0.01513671875
1534598931.070.961181640625,-0.35302734375,0.014892578125
1534598931.070.961181640625,-0.35302734375,0.014892578125
1534598931.070.95947265625,-0.35107421875,0.01123046875
1534598931.070.95947265625,-0.35107421875,0.01123046875
1534598931.070.957275390625,-0.349609375,0.005126953125
1534598931.070.957275390625,-0.349609375,0.005126953125
1534598931.070.95947265625,-0.35302734375,0.00537109375
1534598931.070.95947265625,-0.35302734375,0.00537109375
1534598931.070.961181640625,-0.35302734375,0.010009765625
1534598931.070.961181640625,-0.35302734375,0.010009765625
1534598931.070.958251953125,-0.352783203125,0.01171875
1534598931.070.958251953125,-0.352783203125,0.01171875
1534598931.080.95849609375,-0.351806640625,0.01318359375
1534598931.080.95849609375,-0.351806640625,0.01318359375
1534598931.080.96044921875,-0.352783203125,0.009765625
1534598931.080.96044921875,-0.352783203125,0.009765625
1534598931.080.959716796875,-0.355224609375,0.01025390625
1534598931.080.959716796875,-0.355224609375,0.01025390625
1534598931.080.959228515625,-0.35205078125,0.013427734375
1534598931.080.959228515625,-0.35205078125,0.013427734375
1534598931.080.9599609375,-0.350341796875,0.01025390625
1534598931.080.9599609375,-0.350341796875,0.01025390625
1534598931.080.959228515625,-0.35302734375,0.008544921875
1534598931.080.959228515625,-0.35302734375,0.008544921875
1534598931.080.958740234375,-0.355712890625,0.009521484375
1534598931.080.958740234375,-0.355712890625,0.009521484375
1534598931.080.958251953125,-0.35302734375,0.011474609375
1534598931.080.958251953125,-0.351318359375,0.0078125
1534598931.080.958251953125,-0.351318359375,0.0078125
1534598931.080.95947265625,-0.35546875,0.00439453125
1534598931.080.95947265625,-0.35546875,0.00439453125
1534598931.090.96044921875,-0.354736328125,0.008056640625
1534598931.090.96044921875,-0.354736328125,0.008056640625
1534598931.090.960205078125,-0.353271484375,0.00830078125
1534598931.090.960205078125,-0.353271484375,0.00830078125
1534598931.090.95849609375,-0.35107421875,0.00830078125
1534598931.090.95849609375,-0.35107421875,0.00830078125
1534598931.090.959716796875,-0.3515625,0.009033203125
1534598931.090.959716796875,-0.3515625,0.009033203125
1534598931.090.96044921875,-0.35302734375,0.005859375
1534598931.090.96044921875,-0.35302734375,0.005859375
1534598931.090.9599609375,-0.353271484375,0.008544921875
1534598931.090.9599609375,-0.353271484375,0.008544921875
1534598931.090.959228515625,-0.3544921875,0.00732421875
1534598931.090.959228515625,-0.3544921875,0.00732421875
1534598931.090.958984375,-0.352294921875,0.00634765625
1534598931.090.958984375,-0.352294921875,0.00634765625
1534598931.090.958984375,-0.352294921875,0.00634765625
1534598931.090.95849609375,-0.35107421875,0.009521484375
1534598931.090.957763671875,-0.350341796875,0.012451171875
1534598931.090.957763671875,-0.350341796875,0.012451171875
1534598931.090.960205078125,-0.35205078125,0.009521484375
1534598931.10.960205078125,-0.35205078125,0.009521484375
1534598931.10.958740234375,-0.354248046875,0.00927734375
1534598931.10.958740234375,-0.354248046875,0.00927734375
1534598931.10.95751953125,-0.354248046875,0.01318359375
1534598931.10.95751953125,-0.354248046875,0.01318359375
1534598931.10.956298828125,-0.35205078125,0.008056640625
1534598931.10.956298828125,-0.35205078125,0.008056640625
1534598931.10.954345703125,-0.3525390625,0.007080078125
1534598931.10.954345703125,-0.3525390625,0.007080078125
1534598931.10.958984375,-0.353515625,0.007080078125
1534598931.10.958984375,-0.353515625,0.007080078125
1534598931.10.962158203125,-0.354248046875,0.004150390625
1534598931.10.962158203125,-0.354248046875,0.004150390625
1534598931.10.958984375,-0.351318359375,0.007568359375
1534598931.10.958984375,-0.351318359375,0.007568359375
1534598931.10.958984375,-0.351318359375,0.007568359375
1534598931.10.958740234375,-0.348388671875,0.0107421875
1534598931.10.958740234375,-0.348388671875,0.0107421875
1534598931.10.96142578125,-0.351806640625,0.0087890625
1534598931.10.96142578125,-0.351806640625,0.0087890625
1534598931.110.9609375,-0.353271484375,0.0087890625
1534598931.110.96044921875,-0.3525390625,0.008056640625
1534598931.110.96044921875,-0.3525390625,0.008056640625
1534598931.110.9599609375,-0.352294921875,0.005859375
1534598931.110.9599609375,-0.352294921875,0.005859375
1534598931.110.9599609375,-0.352294921875,0.005859375
1534598931.110.960693359375,-0.349853515625,0.005615234375
1534598931.110.960693359375,-0.349853515625,0.005615234375
1534598931.110.958740234375,-0.34912109375,0.006103515625
1534598931.110.958740234375,-0.34912109375,0.006103515625
1534598931.110.95703125,-0.350830078125,0.007568359375
1534598931.110.95703125,-0.350830078125,0.007568359375
1534598931.110.95849609375,-0.3505859375,0.00830078125
1534598931.110.95849609375,-0.3505859375,0.00830078125
1534598931.110.959716796875,-0.3505859375,0.0078125
1534598931.110.959716796875,-0.3505859375,0.0078125
1534598931.110.956298828125,-0.35009765625,0.011962890625
1534598931.110.956298828125,-0.35009765625,0.011962890625
1534598931.110.95703125,-0.352783203125,0.011962890625
1534598931.110.95703125,-0.352783203125,0.011962890625
1534598931.120.962646484375,-0.353759765625,0.01220703125
1534598931.120.962646484375,-0.353759765625,0.01220703125
1534598931.120.959228515625,-0.354736328125,0.013671875
1534598931.120.959228515625,-0.354736328125,0.013671875
1534598931.120.955078125,-0.354736328125,0.01220703125
1534598931.120.955078125,-0.354736328125,0.01220703125
1534598931.120.956787109375,-0.353515625,0.0126953125
1534598931.120.96044921875,-0.35302734375,0.00634765625
1534598931.120.96044921875,-0.35302734375,0.00634765625
1534598931.120.9619140625,-0.347900390625,0.004638671875
1534598931.120.9619140625,-0.347900390625,0.004638671875
1534598931.120.962646484375,-0.349365234375,0.0107421875
1534598931.120.962646484375,-0.349365234375,0.0107421875
1534598931.120.96044921875,-0.3544921875,0.0126953125
1534598931.120.96044921875,-0.3544921875,0.0126953125
1534598931.120.958740234375,-0.351806640625,0.009521484375
1534598931.120.958740234375,-0.351806640625,0.009521484375
1534598931.120.9580078125,-0.351806640625,0.00732421875
1534598931.120.9580078125,-0.351806640625,0.00732421875
1534598931.130.957763671875,-0.353271484375,0.00634765625
1534598931.130.957763671875,-0.353271484375,0.00634765625
1534598931.130.95654296875,-0.35205078125,0.002685546875
1534598931.130.95654296875,-0.35205078125,0.002685546875
1534598931.130.9560546875,-0.35498046875,0.00439453125
1534598931.130.9560546875,-0.35498046875,0.00439453125
1534598931.130.962158203125,-0.35302734375,0.00537109375
1534598931.130.962158203125,-0.35302734375,0.00537109375
1534598931.130.96435546875,-0.351806640625,0.005859375
1534598931.130.96435546875,-0.351806640625,0.005859375
1534598931.130.962646484375,-0.353759765625,0.0078125
1534598931.130.962646484375,-0.353759765625,0.0078125
1534598931.130.961669921875,-0.3525390625,0.0087890625
1534598931.130.961669921875,-0.3525390625,0.0087890625
1534598931.130.959716796875,-0.3515625,0.0107421875
1534598931.130.959716796875,-0.3515625,0.0107421875
1534598931.130.961669921875,-0.35205078125,0.0107421875
1534598931.130.961669921875,-0.35205078125,0.0107421875
1534598931.130.963623046875,-0.35498046875,0.011962890625
1534598931.140.963623046875,-0.35498046875,0.011962890625
1534598931.150.96142578125,-0.350341796875,0.006103515625
1534598931.150.9599609375,-0.354248046875,0.008056640625
1534598931.150.961181640625,-0.35107421875,0.00830078125
1534598931.150.96142578125,-0.3525390625,0.009765625
1534598931.150.96142578125,-0.3525390625,0.009765625
1534598931.150.963134765625,-0.354736328125,0.0087890625
1534598931.150.961181640625,-0.353515625,0.009521484375
1534598931.150.961181640625,-0.353515625,0.009521484375
1534598931.150.958984375,-0.356689453125,0.0146484375
1534598931.150.958984375,-0.356689453125,0.0146484375
1534598931.150.961181640625,-0.355712890625,0.015380859375
1534598931.150.961181640625,-0.355712890625,0.015380859375
1534598931.150.962890625,-0.351318359375,0.009521484375
1534598931.160.95947265625,-0.351806640625,0.004638671875
1534598931.160.963134765625,-0.3525390625,0.009765625
1534598931.160.963134765625,-0.3525390625,0.009765625
1534598931.160.961669921875,-0.353271484375,0.0126953125
1534598931.160.962646484375,-0.3515625,0.0087890625
1534598931.160.962646484375,-0.3515625,0.0087890625
1534598931.160.96337890625,-0.351806640625,0.006103515625
1534598931.160.96337890625,-0.351806640625,0.006103515625
1534598931.160.962646484375,-0.3515625,0.00927734375
1534598931.160.962890625,-0.35302734375,0.014892578125
1534598931.160.962890625,-0.35302734375,0.014892578125
1534598931.160.962158203125,-0.3544921875,0.012939453125
1534598931.160.962158203125,-0.3544921875,0.012939453125
1534598931.170.958251953125,-0.349853515625,0.006591796875
1534598931.170.956298828125,-0.349365234375,0.007568359375
1534598931.170.956298828125,-0.349365234375,0.007568359375
1534598931.170.95947265625,-0.35205078125,0.013916015625
1534598931.170.958984375,-0.35400390625,0.014404296875
1534598931.170.958984375,-0.35400390625,0.014404296875
1534598931.170.958251953125,-0.353759765625,0.016357421875
1534598931.170.958251953125,-0.353759765625,0.016357421875
1534598931.170.959228515625,-0.3544921875,0.0185546875
1534598931.170.960693359375,-0.35693359375,0.015625
1534598931.170.960693359375,-0.35693359375,0.015625
1534598931.170.9619140625,-0.355224609375,0.009765625
1534598931.170.9619140625,-0.355224609375,0.009765625
1534598931.170.958740234375,-0.3525390625,0.01708984375
1534598931.180.9580078125,-0.35302734375,0.011474609375
1534598931.180.95947265625,-0.353271484375,0.008544921875
1534598931.180.961181640625,-0.35400390625,0.010498046875
1534598931.180.95947265625,-0.353515625,0.010986328125
1534598931.180.958740234375,-0.352294921875,0.009033203125
1534598931.180.958740234375,-0.352294921875,0.009033203125
1534598931.180.958740234375,-0.351318359375,0.003173828125
1534598931.180.958740234375,-0.351318359375,0.003173828125
1534598931.180.960205078125,-0.3525390625,0.00634765625
1534598931.190.963134765625,-0.355224609375,0.010009765625
1534598931.190.959716796875,-0.351318359375,0.009033203125
1534598931.190.95849609375,-0.35400390625,0.014892578125
1534598931.190.95849609375,-0.35400390625,0.014892578125
1534598931.190.959228515625,-0.35498046875,0.013916015625
1534598931.190.959228515625,-0.35498046875,0.013916015625
1534598931.190.958984375,-0.354248046875,0.0087890625
1534598931.190.956298828125,-0.35546875,0.00927734375
1534598931.190.956298828125,-0.35546875,0.00927734375
1534598931.190.95849609375,-0.355224609375,0.0126953125
1534598931.190.95849609375,-0.355224609375,0.0126953125
1534598931.190.962158203125,-0.35546875,0.013671875
1534598931.190.962158203125,-0.35546875,0.013671875
1534598931.190.964599609375,-0.35302734375,0.01025390625
1534598931.190.96240234375,-0.348388671875,0.0048828125
1534598931.190.96240234375,-0.348388671875,0.0048828125
1534598931.190.958984375,-0.34912109375,0.00537109375
1534598931.190.958984375,-0.34912109375,0.00537109375
1534598931.20.958740234375,-0.35205078125,0.009033203125
1534598931.20.958740234375,-0.35205078125,0.009033203125
1534598931.20.958740234375,-0.35205078125,0.009033203125
1534598931.20.96044921875,-0.35302734375,0.011962890625
1534598931.20.96142578125,-0.35205078125,0.01123046875
1534598931.20.96142578125,-0.35205078125,0.01123046875
1534598931.20.96142578125,-0.352294921875,0.008056640625
1534598931.20.96142578125,-0.352294921875,0.008056640625
1534598931.20.958740234375,-0.353515625,0.008544921875
1534598931.20.958740234375,-0.353515625,0.008544921875
1534598931.20.95751953125,-0.35302734375,0.010498046875
1534598931.20.95751953125,-0.35302734375,0.010498046875
1534598931.20.962158203125,-0.352783203125,0.01220703125
1534598931.20.962158203125,-0.352783203125,0.01220703125
1534598931.20.9609375,-0.353759765625,0.01123046875
1534598931.20.9609375,-0.353759765625,0.01123046875
1534598931.20.9580078125,-0.353271484375,0.00537109375
1534598931.20.9580078125,-0.353271484375,0.00537109375
1534598931.20.95947265625,-0.3505859375,0.00634765625
1534598931.210.95947265625,-0.3505859375,0.00634765625
1534598931.210.956298828125,-0.349609375,0.005859375
1534598931.210.956298828125,-0.349609375,0.005859375
1534598931.210.956787109375,-0.349609375,0.007568359375
1534598931.210.956787109375,-0.349609375,0.007568359375
1534598931.210.960693359375,-0.3525390625,0.011474609375
1534598931.210.960693359375,-0.3525390625,0.011474609375
1534598931.210.958740234375,-0.355712890625,0.008056640625
1534598931.210.958740234375,-0.355712890625,0.008056640625
1534598931.210.95703125,-0.354736328125,0.00390625
1534598931.210.95703125,-0.354736328125,0.00390625
1534598931.210.957275390625,-0.35302734375,0.007080078125
1534598931.210.957275390625,-0.35302734375,0.007080078125
1534598931.210.95703125,-0.3544921875,0.0078125
1534598931.210.95703125,-0.3544921875,0.0078125
1534598931.210.95654296875,-0.355224609375,0.005615234375
1534598931.210.95654296875,-0.355224609375,0.005615234375
1534598931.210.95947265625,-0.355224609375,0.011962890625
1534598931.210.95947265625,-0.355224609375,0.011962890625
1534598931.210.96484375,-0.353515625,0.010986328125
1534598931.210.96484375,-0.353515625,0.010986328125
1534598931.220.965576171875,-0.35107421875,0.01123046875
1534598931.220.965576171875,-0.35107421875,0.01123046875
1534598931.220.961181640625,-0.351806640625,0.01513671875
1534598931.220.961181640625,-0.351806640625,0.01513671875
1534598931.220.961181640625,-0.351318359375,0.0126953125
1534598931.220.961181640625,-0.351318359375,0.0126953125
1534598931.220.9638671875,-0.35009765625,0.013916015625
1534598931.220.96435546875,-0.347412109375,0.017333984375
1534598931.220.96435546875,-0.347412109375,0.017333984375
1534598931.220.96337890625,-0.349853515625,0.015625
1534598931.220.96337890625,-0.349853515625,0.015625
1534598931.220.958984375,-0.35107421875,0.014892578125
1534598931.220.958984375,-0.35107421875,0.014892578125
1534598931.220.958740234375,-0.3515625,0.01171875
1534598931.220.958740234375,-0.3515625,0.01171875
1534598931.220.961181640625,-0.353515625,0.012939453125
1534598931.220.961181640625,-0.353515625,0.012939453125
1534598931.220.959716796875,-0.354248046875,0.012939453125
1534598931.230.959716796875,-0.354248046875,0.012939453125
1534598931.230.95849609375,-0.3544921875,0.00830078125
1534598931.230.95849609375,-0.3544921875,0.00830078125
1534598931.230.958984375,-0.352294921875,0.010498046875
1534598931.230.958984375,-0.352294921875,0.010498046875
1534598931.230.9599609375,-0.350830078125,0.01123046875
1534598931.230.9599609375,-0.350830078125,0.01123046875
1534598931.230.958740234375,-0.351806640625,0.0068359375
1534598931.230.958740234375,-0.351806640625,0.0068359375
1534598931.230.959228515625,-0.355224609375,0.005615234375
1534598931.230.959228515625,-0.355224609375,0.005615234375
1534598931.230.957275390625,-0.35302734375,0.006591796875
1534598931.230.957275390625,-0.35302734375,0.006591796875
1534598931.230.9560546875,-0.35302734375,0.0078125
1534598931.230.9560546875,-0.35302734375,0.0078125
1534598931.230.96044921875,-0.354248046875,0.009033203125
1534598931.230.96044921875,-0.354248046875,0.009033203125
1534598931.230.9619140625,-0.351806640625,0.00830078125
1534598931.230.9619140625,-0.351806640625,0.00830078125
1534598931.230.96240234375,-0.350341796875,0.0107421875
1534598931.230.96240234375,-0.350341796875,0.0107421875
1534598931.240.9609375,-0.352294921875,0.012451171875
1534598931.240.9609375,-0.352294921875,0.012451171875
1534598931.240.959228515625,-0.353759765625,0.0107421875
1534598931.240.959228515625,-0.353759765625,0.0107421875
1534598931.240.9599609375,-0.353759765625,0.012939453125
1534598931.240.9599609375,-0.353759765625,0.012939453125
1534598931.240.960205078125,-0.351806640625,0.01611328125
1534598931.240.960205078125,-0.351806640625,0.01611328125
1534598931.240.959228515625,-0.350341796875,0.013671875
1534598931.240.959228515625,-0.350341796875,0.013671875
1534598931.240.962646484375,-0.35498046875,0.009765625
1534598931.240.962646484375,-0.35498046875,0.009765625
1534598931.240.962158203125,-0.354736328125,0.0146484375
1534598931.240.962158203125,-0.354736328125,0.0146484375
1534598931.240.958984375,-0.3505859375,0.0146484375
1534598931.240.958984375,-0.3505859375,0.0146484375
1534598931.240.96044921875,-0.348388671875,0.011474609375
1534598931.240.96044921875,-0.348388671875,0.011474609375
1534598931.240.96044921875,-0.350341796875,0.01171875
1534598931.240.96044921875,-0.350341796875,0.01171875
1534598931.250.9609375,-0.3564453125,0.00732421875
1534598931.250.9609375,-0.3564453125,0.00732421875
1534598931.250.9638671875,-0.35400390625,0.0078125
1534598931.250.9638671875,-0.35400390625,0.0078125
1534598931.250.961669921875,-0.348876953125,0.007080078125
1534598931.250.961669921875,-0.348876953125,0.007080078125
1534598931.250.9580078125,-0.34814453125,0.0087890625
1534598931.250.9580078125,-0.34814453125,0.0087890625
1534598931.250.96044921875,-0.349853515625,0.0126953125
1534598931.250.96044921875,-0.349853515625,0.0126953125
1534598931.250.9619140625,-0.354248046875,0.008544921875
1534598931.250.9619140625,-0.354248046875,0.008544921875
1534598931.250.9619140625,-0.354248046875,0.008544921875
1534598931.250.9619140625,-0.354248046875,0.008544921875
1534598931.250.962890625,-0.350341796875,0.01904296875
1534598931.250.962890625,-0.350341796875,0.01904296875
1534598931.250.9599609375,-0.349365234375,0.01611328125
1534598931.250.9599609375,-0.349365234375,0.01611328125
1534598931.250.958251953125,-0.3505859375,0.010009765625
1534598931.250.958251953125,-0.3505859375,0.010009765625
1534598931.260.9599609375,-0.3525390625,0.0107421875
1534598931.260.9599609375,-0.3525390625,0.0107421875
1534598931.260.961181640625,-0.3515625,0.01171875
1534598931.260.959228515625,-0.349609375,0.0146484375
1534598931.260.959228515625,-0.349609375,0.0146484375
1534598931.260.95654296875,-0.351806640625,0.0087890625
1534598931.260.95654296875,-0.351806640625,0.0087890625
1534598931.260.9599609375,-0.3515625,0.006103515625
1534598931.260.9599609375,-0.3515625,0.006103515625
1534598931.260.96435546875,-0.3515625,0.008544921875
1534598931.260.96435546875,-0.3515625,0.008544921875
1534598931.260.9599609375,-0.3544921875,0.008056640625
1534598931.260.9599609375,-0.3544921875,0.008056640625
1534598931.260.95947265625,-0.354248046875,0.01171875
1534598931.260.95947265625,-0.354248046875,0.01171875
1534598931.260.961669921875,-0.353515625,0.01025390625
1534598931.260.961669921875,-0.353515625,0.01025390625
1534598931.260.9580078125,-0.35546875,0.00439453125
1534598931.260.9580078125,-0.35546875,0.00439453125
1534598931.260.9580078125,-0.35546875,0.00439453125
1534598931.270.95849609375,-0.3544921875,0.00390625
1534598931.270.95947265625,-0.353515625,0.00244140625
1534598931.270.95947265625,-0.353515625,0.00244140625
1534598931.270.959228515625,-0.351806640625,0.005859375
1534598931.270.959228515625,-0.351806640625,0.005859375
1534598931.270.958251953125,-0.353515625,0.00732421875
1534598931.270.958251953125,-0.353515625,0.00732421875
1534598931.270.9580078125,-0.354248046875,0.00732421875
1534598931.270.9580078125,-0.354248046875,0.00732421875
1534598931.270.958251953125,-0.352783203125,0.0048828125
1534598931.270.958251953125,-0.352783203125,0.0048828125
1534598931.270.958984375,-0.351806640625,0.00439453125
1534598931.270.958984375,-0.351806640625,0.00439453125
1534598931.270.956298828125,-0.3486328125,0.01123046875
1534598931.270.956298828125,-0.3486328125,0.01123046875
1534598931.270.956298828125,-0.3486328125,0.01123046875
1534598931.270.956298828125,-0.350341796875,0.0087890625
1534598931.270.957763671875,-0.353271484375,0.0087890625
1534598931.270.957763671875,-0.353271484375,0.0087890625
1534598931.270.957763671875,-0.353271484375,0.0087890625
1534598931.280.9580078125,-0.3515625,0.006103515625
1534598931.280.9580078125,-0.3515625,0.006103515625
1534598931.280.9580078125,-0.351318359375,0.004150390625
1534598931.280.9580078125,-0.351318359375,0.004150390625
1534598931.280.959228515625,-0.353271484375,0.01025390625
1534598931.280.960693359375,-0.354248046875,0.011962890625
1534598931.280.960693359375,-0.354248046875,0.011962890625
1534598931.280.961669921875,-0.35546875,0.009033203125
1534598931.280.961669921875,-0.35546875,0.009033203125
1534598931.280.9619140625,-0.35302734375,0.00830078125
1534598931.280.9619140625,-0.35302734375,0.00830078125
1534598931.280.9619140625,-0.35302734375,0.00830078125
1534598931.280.955810546875,-0.3515625,0.01123046875
1534598931.280.955810546875,-0.3515625,0.01123046875
1534598931.280.956787109375,-0.353759765625,0.0078125
1534598931.280.956787109375,-0.353759765625,0.0078125
1534598931.280.9609375,-0.355224609375,0.01025390625
1534598931.280.9609375,-0.355224609375,0.01025390625
1534598931.280.959228515625,-0.355224609375,0.01318359375
1534598931.280.959228515625,-0.355224609375,0.01318359375
1534598931.290.957275390625,-0.3544921875,0.00830078125
1534598931.290.957275390625,-0.3544921875,0.00830078125
1534598931.290.95703125,-0.35205078125,0.00634765625
1534598931.290.95703125,-0.35205078125,0.00634765625
1534598931.290.958984375,-0.351318359375,0.004638671875
1534598931.290.958984375,-0.351318359375,0.004638671875
1534598931.290.96044921875,-0.35302734375,0.009765625
1534598931.290.96044921875,-0.35302734375,0.009765625
1534598931.290.960693359375,-0.353515625,0.015625
1534598931.290.960693359375,-0.353515625,0.015625
1534598931.290.96240234375,-0.353759765625,0.01806640625
1534598931.290.96240234375,-0.353759765625,0.01806640625
1534598931.290.962646484375,-0.355224609375,0.0146484375
1534598931.290.962646484375,-0.355224609375,0.0146484375
1534598931.290.962890625,-0.35546875,0.011474609375
1534598931.30.962890625,-0.35546875,0.011474609375
1534598931.30.9609375,-0.3525390625,0.013671875
1534598931.30.96044921875,-0.349853515625,0.008056640625
1534598931.30.9619140625,-0.35009765625,0.01220703125
1534598931.30.961181640625,-0.352783203125,0.016845703125
1534598931.30.961181640625,-0.352783203125,0.016845703125
1534598931.310.96044921875,-0.352294921875,0.01416015625
1534598931.310.95849609375,-0.35107421875,0.008544921875
1534598931.310.95849609375,-0.35107421875,0.008544921875
1534598931.310.95703125,-0.35205078125,0.0048828125
1534598931.310.95703125,-0.35205078125,0.0048828125
1534598931.310.95654296875,-0.353271484375,0.00439453125
1534598931.310.958984375,-0.353271484375,0.008056640625
1534598931.310.962158203125,-0.353759765625,0.0107421875
1534598931.310.9580078125,-0.35302734375,0.00927734375
1534598931.310.9580078125,-0.35302734375,0.00927734375
1534598931.310.959228515625,-0.353759765625,0.00927734375
1534598931.310.959228515625,-0.354248046875,0.006103515625
1534598931.320.962158203125,-0.350341796875,0.00830078125
1534598931.320.961669921875,-0.3486328125,0.011962890625
1534598931.320.961669921875,-0.3486328125,0.011962890625
1534598931.320.959228515625,-0.349609375,0.0078125
1534598931.320.959228515625,-0.349609375,0.0078125
1534598931.320.957763671875,-0.3525390625,0.005615234375
1534598931.320.960693359375,-0.353515625,0.00927734375
1534598931.320.960693359375,-0.353515625,0.00927734375
1534598931.320.96044921875,-0.351318359375,0.010986328125
1534598931.320.96044921875,-0.351318359375,0.010986328125
1534598931.330.955322265625,-0.352294921875,0.00634765625
1534598931.330.962890625,-0.354248046875,0.00634765625
1534598931.330.962890625,-0.354248046875,0.00634765625
1534598931.330.962890625,-0.357421875,0.009765625
1534598931.330.962890625,-0.357421875,0.009765625
1534598931.330.963134765625,-0.35693359375,0.0107421875
1534598931.330.962646484375,-0.352783203125,0.01318359375
1534598931.330.962646484375,-0.352783203125,0.01318359375
1534598931.330.960693359375,-0.3505859375,0.009521484375
1534598931.330.960693359375,-0.35400390625,0.0087890625
1534598931.330.960693359375,-0.35400390625,0.0087890625
1534598931.330.959716796875,-0.357421875,0.012451171875
1534598931.330.959716796875,-0.354248046875,0.01123046875
1534598931.330.9580078125,-0.35107421875,0.008544921875
1534598931.330.9580078125,-0.35107421875,0.008544921875
1534598931.340.9560546875,-0.351318359375,0.007080078125
1534598931.340.9560546875,-0.35205078125,0.010009765625
1534598931.340.957763671875,-0.35498046875,0.01123046875
1534598931.340.961669921875,-0.353759765625,0.006591796875
1534598931.340.9619140625,-0.351318359375,0.00830078125
1534598931.340.96142578125,-0.353271484375,0.013671875
1534598931.340.96142578125,-0.353271484375,0.013671875
1534598931.340.959716796875,-0.35498046875,0.013671875
1534598931.340.958740234375,-0.35546875,0.010498046875
1534598931.340.95849609375,-0.3525390625,0.007080078125
1534598931.340.95849609375,-0.3525390625,0.007080078125
1534598931.350.95654296875,-0.35205078125,0.01123046875
1534598931.350.959228515625,-0.35693359375,0.008056640625
1534598931.350.956298828125,-0.35595703125,0.013427734375
1534598931.350.959228515625,-0.35302734375,0.014404296875
1534598931.350.959228515625,-0.35302734375,0.014404296875
1534598931.350.960693359375,-0.352294921875,0.010009765625
1534598931.350.957763671875,-0.351318359375,0.007568359375
1534598931.350.957763671875,-0.351318359375,0.007568359375
1534598931.350.95654296875,-0.352294921875,0.003173828125
1534598931.350.95654296875,-0.352294921875,0.003173828125
1534598931.350.958740234375,-0.35400390625,0.00537109375
1534598931.350.958740234375,-0.35400390625,0.00537109375
1534598931.350.958251953125,-0.35498046875,0.00732421875
1534598931.350.958251953125,-0.35498046875,0.00732421875
1534598931.350.959716796875,-0.35595703125,0.00390625
1534598931.350.959716796875,-0.35595703125,0.00390625
1534598931.350.9619140625,-0.357177734375,0.005859375
1534598931.360.9619140625,-0.357177734375,0.005859375
1534598931.360.962158203125,-0.355224609375,0.006103515625
1534598931.360.962158203125,-0.355224609375,0.006103515625
1534598931.360.9599609375,-0.349853515625,0.00537109375
1534598931.360.9609375,-0.3486328125,0.0087890625
1534598931.360.9609375,-0.3486328125,0.0087890625
1534598931.360.9599609375,-0.35009765625,0.0068359375
1534598931.360.9599609375,-0.35009765625,0.0068359375
1534598931.360.957763671875,-0.350830078125,0.006591796875
1534598931.360.957763671875,-0.350830078125,0.006591796875
1534598931.360.958984375,-0.352294921875,0.0087890625
1534598931.360.958984375,-0.352294921875,0.0087890625
1534598931.360.958251953125,-0.35107421875,0.012939453125
1534598931.360.958251953125,-0.35107421875,0.012939453125
1534598931.360.95703125,-0.350830078125,0.014892578125
1534598931.360.95703125,-0.350830078125,0.014892578125
1534598931.360.9580078125,-0.35498046875,0.01171875
1534598931.360.9580078125,-0.35498046875,0.01171875
1534598931.360.959228515625,-0.35595703125,0.009765625
1534598931.370.959228515625,-0.35595703125,0.009765625
1534598931.370.9599609375,-0.353515625,0.008544921875
1534598931.370.9599609375,-0.35302734375,0.009765625
1534598931.370.95849609375,-0.353759765625,0.006103515625
1534598931.370.960693359375,-0.352783203125,0.010986328125
1534598931.370.960693359375,-0.352783203125,0.010986328125
1534598931.370.965087890625,-0.35009765625,0.014404296875
1534598931.370.965087890625,-0.35009765625,0.014404296875
1534598931.370.963623046875,-0.350341796875,0.009521484375
1534598931.370.963623046875,-0.350341796875,0.009521484375
1534598931.370.959228515625,-0.35302734375,0.01220703125
1534598931.370.959228515625,-0.35302734375,0.01220703125
1534598931.370.959716796875,-0.353515625,0.01708984375
1534598931.370.959716796875,-0.353515625,0.01708984375
1534598931.370.960205078125,-0.35400390625,0.011962890625
1534598931.370.960205078125,-0.35400390625,0.011962890625
1534598931.370.96044921875,-0.35546875,0.002685546875
1534598931.370.96044921875,-0.35546875,0.002685546875
1534598931.380.960205078125,-0.358642578125,0.006591796875
1534598931.380.960205078125,-0.358642578125,0.006591796875
1534598931.380.958251953125,-0.358642578125,0.01220703125
1534598931.380.958251953125,-0.358642578125,0.01220703125
1534598931.380.95947265625,-0.353271484375,0.01171875
1534598931.380.95947265625,-0.353271484375,0.01171875
1534598931.380.958984375,-0.352783203125,0.015869140625
1534598931.380.958984375,-0.352783203125,0.015869140625
1534598931.380.959228515625,-0.353759765625,0.01513671875
1534598931.380.959228515625,-0.353759765625,0.01513671875
1534598931.380.961669921875,-0.353759765625,0.0107421875
1534598931.380.961669921875,-0.353759765625,0.0107421875
1534598931.380.95849609375,-0.352783203125,0.014404296875
1534598931.380.95849609375,-0.352783203125,0.014404296875
1534598931.380.953857421875,-0.3505859375,0.01318359375
1534598931.380.953857421875,-0.3505859375,0.01318359375
1534598931.380.955322265625,-0.3525390625,0.010498046875
1534598931.380.955322265625,-0.3525390625,0.010498046875
1534598931.380.958251953125,-0.3544921875,0.012939453125
1534598931.380.958251953125,-0.3544921875,0.012939453125
1534598931.390.954833984375,-0.351806640625,0.011474609375
1534598931.390.954833984375,-0.351806640625,0.011474609375
1534598931.390.955322265625,-0.35107421875,0.010498046875
1534598931.390.955322265625,-0.35107421875,0.010498046875
1534598931.390.96142578125,-0.354736328125,0.008544921875
1534598931.390.96142578125,-0.354736328125,0.008544921875
1534598931.390.960693359375,-0.353271484375,0.008544921875
1534598931.390.960693359375,-0.353271484375,0.008544921875
1534598931.390.9609375,-0.3515625,0.010498046875
1534598931.390.9609375,-0.3515625,0.010498046875
1534598931.390.9609375,-0.35302734375,0.01025390625
1534598931.390.9609375,-0.35302734375,0.01025390625
1534598931.390.960205078125,-0.3525390625,0.01025390625
1534598931.390.960205078125,-0.3525390625,0.01025390625
1534598931.390.960205078125,-0.35205078125,0.005126953125
1534598931.390.960205078125,-0.35205078125,0.005126953125
1534598931.390.957763671875,-0.35302734375,0.008056640625
1534598931.390.957763671875,-0.35302734375,0.008056640625
1534598931.390.960693359375,-0.352294921875,0.013671875
1534598931.390.960693359375,-0.352294921875,0.013671875
1534598931.40.9619140625,-0.352294921875,0.015625
1534598931.40.959228515625,-0.35498046875,0.01513671875
1534598931.40.959228515625,-0.35498046875,0.01513671875
1534598931.40.95947265625,-0.357666015625,0.01220703125
1534598931.40.95947265625,-0.357666015625,0.01220703125
1534598931.40.95849609375,-0.357177734375,0.013427734375
1534598931.40.95849609375,-0.357177734375,0.013427734375
1534598931.40.959228515625,-0.35205078125,0.012451171875
1534598931.40.959228515625,-0.35205078125,0.012451171875
1534598931.40.959228515625,-0.35205078125,0.012451171875
1534598931.40.96142578125,-0.35107421875,0.0126953125
1534598931.40.96142578125,-0.35107421875,0.0126953125
1534598931.40.958984375,-0.353515625,0.009521484375
1534598931.40.958984375,-0.353515625,0.009521484375
1534598931.40.95849609375,-0.35205078125,0.005126953125
1534598931.40.95849609375,-0.35205078125,0.005126953125
1534598931.40.959228515625,-0.353759765625,0.008544921875
1534598931.40.959228515625,-0.353759765625,0.008544921875
1534598931.40.958740234375,-0.353759765625,0.00927734375
1534598931.40.958740234375,-0.353759765625,0.00927734375
1534598931.410.9609375,-0.35302734375,0.00830078125
1534598931.410.9609375,-0.35302734375,0.00830078125
1534598931.410.96337890625,-0.354248046875,0.005615234375
1534598931.410.96337890625,-0.354248046875,0.005615234375
1534598931.410.963134765625,-0.355224609375,0.010009765625
1534598931.410.963134765625,-0.355224609375,0.010009765625
1534598931.410.9599609375,-0.35400390625,0.0126953125
1534598931.410.9599609375,-0.35400390625,0.0126953125
1534598931.410.958740234375,-0.35302734375,0.00830078125
1534598931.410.958740234375,-0.35302734375,0.00830078125
1534598931.410.960693359375,-0.356689453125,0.01025390625
1534598931.410.960693359375,-0.356689453125,0.01025390625
1534598931.410.960693359375,-0.3544921875,0.010986328125
1534598931.410.960693359375,-0.3544921875,0.010986328125
1534598931.410.961181640625,-0.35498046875,0.011962890625
1534598931.410.961181640625,-0.35498046875,0.011962890625
1534598931.410.959228515625,-0.357177734375,0.015380859375
1534598931.410.959228515625,-0.357177734375,0.015380859375
1534598931.410.95703125,-0.35546875,0.01318359375
1534598931.410.95703125,-0.35546875,0.01318359375
1534598931.420.958740234375,-0.357666015625,0.0048828125
1534598931.420.958740234375,-0.357666015625,0.0048828125
1534598931.420.960205078125,-0.357421875,0.005615234375
1534598931.420.960205078125,-0.357421875,0.005615234375
1534598931.420.960205078125,-0.3525390625,0.01123046875
1534598931.420.960205078125,-0.3525390625,0.01123046875
1534598931.420.960693359375,-0.352294921875,0.008544921875
1534598931.420.960693359375,-0.352294921875,0.008544921875
1534598931.420.962158203125,-0.35400390625,0.00439453125
1534598931.420.962158203125,-0.35400390625,0.00439453125
1534598931.420.962158203125,-0.352294921875,0.010986328125
1534598931.420.962158203125,-0.352294921875,0.010986328125
1534598931.420.9599609375,-0.353515625,0.017333984375
1534598931.420.9599609375,-0.353515625,0.017333984375
1534598931.420.957763671875,-0.35693359375,0.0126953125
1534598931.420.957763671875,-0.35693359375,0.0126953125
1534598931.420.9580078125,-0.35546875,0.008056640625
1534598931.420.9580078125,-0.35546875,0.008056640625
1534598931.420.959228515625,-0.35302734375,0.0068359375
1534598931.420.959228515625,-0.35302734375,0.0068359375
1534598931.430.960205078125,-0.351806640625,0.0087890625
1534598931.430.9638671875,-0.3525390625,0.0107421875
1534598931.430.964111328125,-0.353759765625,0.01123046875
1534598931.430.964111328125,-0.353759765625,0.01123046875
1534598931.430.9599609375,-0.3544921875,0.008544921875
1534598931.430.9599609375,-0.3544921875,0.008544921875
1534598931.430.958740234375,-0.355224609375,0.00927734375
1534598931.430.958740234375,-0.355224609375,0.00927734375
1534598931.430.95947265625,-0.35595703125,0.011962890625
1534598931.430.95947265625,-0.35595703125,0.011962890625
1534598931.430.958740234375,-0.3544921875,0.0126953125
1534598931.430.958740234375,-0.3544921875,0.0126953125
1534598931.430.9599609375,-0.3515625,0.01171875
1534598931.430.9599609375,-0.3515625,0.01171875
1534598931.430.960205078125,-0.349853515625,0.009033203125
1534598931.430.960205078125,-0.349853515625,0.009033203125
1534598931.430.95947265625,-0.3505859375,0.00634765625
1534598931.430.95947265625,-0.3505859375,0.00634765625
1534598931.440.96044921875,-0.354248046875,0.004638671875
1534598931.440.96044921875,-0.354248046875,0.004638671875
1534598931.440.960205078125,-0.353271484375,0.00927734375
1534598931.440.960205078125,-0.353271484375,0.00927734375
1534598931.440.962158203125,-0.352783203125,0.01123046875
1534598931.440.96337890625,-0.352783203125,0.011962890625
1534598931.440.96337890625,-0.352783203125,0.011962890625
1534598931.440.963134765625,-0.3505859375,0.00830078125
1534598931.440.963134765625,-0.3505859375,0.00830078125
1534598931.440.96240234375,-0.35205078125,0.00634765625
1534598931.440.96240234375,-0.35205078125,0.00634765625
1534598931.440.96240234375,-0.35205078125,0.00634765625
1534598931.440.958984375,-0.35595703125,0.013427734375
1534598931.440.9599609375,-0.35498046875,0.01123046875
1534598931.440.9599609375,-0.35498046875,0.01123046875
1534598931.440.961181640625,-0.351318359375,0.00732421875
1534598931.440.961181640625,-0.351318359375,0.00732421875
1534598931.440.961181640625,-0.351318359375,0.00732421875
1534598931.440.9560546875,-0.3505859375,0.0078125
1534598931.440.9560546875,-0.3505859375,0.0078125
1534598931.450.96044921875,-0.35107421875,0.005126953125
1534598931.450.96337890625,-0.352294921875,0.00390625
1534598931.450.96337890625,-0.352294921875,0.00390625
1534598931.450.958251953125,-0.3544921875,0.01123046875
1534598931.450.958251953125,-0.3544921875,0.01123046875
1534598931.450.95654296875,-0.35595703125,0.014404296875
1534598931.450.95654296875,-0.35595703125,0.014404296875
1534598931.450.9599609375,-0.355224609375,0.008544921875
1534598931.450.9599609375,-0.355224609375,0.008544921875
1534598931.450.963623046875,-0.354736328125,0.004638671875
1534598931.450.963623046875,-0.354736328125,0.004638671875
1534598931.450.961669921875,-0.3525390625,0.00732421875
1534598931.450.961669921875,-0.3525390625,0.00732421875
1534598931.450.958251953125,-0.35205078125,0.00732421875
1534598931.450.958251953125,-0.35205078125,0.00732421875
1534598931.450.95703125,-0.35498046875,0.007080078125
1534598931.450.95703125,-0.35498046875,0.007080078125
1534598931.460.958740234375,-0.35302734375,0.012451171875
1534598931.460.961669921875,-0.353759765625,0.009765625
1534598931.460.962158203125,-0.355712890625,0.0048828125
1534598931.470.9619140625,-0.3544921875,0.006591796875
1534598931.470.959716796875,-0.353515625,0.00537109375
1534598931.470.95703125,-0.3564453125,0.005126953125
1534598931.470.95703125,-0.3564453125,0.005126953125
1534598931.470.96142578125,-0.35400390625,0.005859375
1534598931.470.96337890625,-0.356201171875,0.0078125
1534598931.470.96337890625,-0.356201171875,0.0078125
1534598931.470.959228515625,-0.357666015625,0.009033203125
1534598931.470.962646484375,-0.35498046875,0.00732421875
1534598931.470.962646484375,-0.35498046875,0.00732421875
1534598931.470.965087890625,-0.353515625,0.0087890625
1534598931.470.965087890625,-0.353515625,0.0087890625
1534598931.470.9599609375,-0.353271484375,0.010986328125
1534598931.470.9599609375,-0.353759765625,0.009521484375
1534598931.470.9599609375,-0.353759765625,0.009521484375
1534598931.470.958984375,-0.353759765625,0.00830078125
1534598931.480.958984375,-0.353759765625,0.00830078125
1534598931.480.95654296875,-0.354248046875,0.010009765625
1534598931.480.956298828125,-0.350341796875,0.00439453125
1534598931.480.95654296875,-0.350830078125,0.00439453125
1534598931.480.95654296875,-0.350830078125,0.00439453125
1534598931.480.95947265625,-0.35205078125,0.005859375
1534598931.480.961181640625,-0.3525390625,0.009033203125
1534598931.490.961181640625,-0.3525390625,0.009033203125
1534598931.490.960205078125,-0.353271484375,0.01123046875
1534598931.490.962158203125,-0.354736328125,0.011474609375
1534598931.490.962158203125,-0.354736328125,0.011474609375
1534598931.490.96240234375,-0.355712890625,0.009765625
1534598931.490.9580078125,-0.35595703125,0.013427734375
1534598931.490.957763671875,-0.35498046875,0.011962890625
1534598931.490.957763671875,-0.35498046875,0.011962890625
1534598931.490.958740234375,-0.354248046875,0.0087890625
1534598931.490.958740234375,-0.354248046875,0.0087890625
1534598931.490.95654296875,-0.3544921875,0.008544921875
1534598931.490.959716796875,-0.3564453125,0.009033203125
1534598931.50.959716796875,-0.3564453125,0.009033203125
1534598931.50.963134765625,-0.354736328125,0.00830078125
1534598931.50.963134765625,-0.354736328125,0.00830078125
1534598931.50.96337890625,-0.35498046875,0.010498046875
1534598931.50.960693359375,-0.353759765625,0.007568359375
1534598931.50.958740234375,-0.358154296875,0.01416015625
1534598931.50.961181640625,-0.35791015625,0.013916015625
1534598931.50.961181640625,-0.35791015625,0.013916015625
1534598931.50.95947265625,-0.35595703125,0.0107421875
1534598931.50.95751953125,-0.3525390625,0.01123046875
1534598931.510.95751953125,-0.3525390625,0.01123046875
1534598931.510.957763671875,-0.350341796875,0.007568359375
1534598931.510.9599609375,-0.353271484375,0.00927734375
1534598931.510.9599609375,-0.353271484375,0.00927734375
1534598931.510.958984375,-0.350830078125,0.015380859375
1534598931.510.958984375,-0.350830078125,0.015380859375
1534598931.510.95556640625,-0.3515625,0.013916015625
1534598931.510.95556640625,-0.3515625,0.013916015625
1534598931.510.9560546875,-0.3564453125,0.01025390625
1534598931.510.9560546875,-0.3564453125,0.01025390625
1534598931.510.958740234375,-0.35693359375,0.0078125
1534598931.510.958740234375,-0.35693359375,0.0078125
1534598931.510.9609375,-0.3544921875,0.010009765625
1534598931.510.9609375,-0.3544921875,0.010009765625
1534598931.510.962646484375,-0.354736328125,0.012939453125
1534598931.510.962646484375,-0.354736328125,0.012939453125
1534598931.510.961669921875,-0.35888671875,0.0146484375
1534598931.510.961669921875,-0.35888671875,0.0146484375
1534598931.510.961669921875,-0.357177734375,0.010986328125
1534598931.520.961669921875,-0.357177734375,0.010986328125
1534598931.520.96142578125,-0.35546875,0.0087890625
1534598931.520.96142578125,-0.35546875,0.0087890625
1534598931.520.959716796875,-0.35498046875,0.01220703125
1534598931.520.959716796875,-0.35498046875,0.01220703125
1534598931.520.959228515625,-0.354736328125,0.014404296875
1534598931.520.959228515625,-0.354736328125,0.014404296875
1534598931.520.9609375,-0.35498046875,0.01220703125
1534598931.520.9609375,-0.35498046875,0.01220703125
1534598931.520.960205078125,-0.35595703125,0.01220703125
1534598931.520.960205078125,-0.35595703125,0.01220703125
1534598931.520.956787109375,-0.353271484375,0.0107421875
1534598931.520.956787109375,-0.353271484375,0.0107421875
1534598931.520.957275390625,-0.352783203125,0.010986328125
1534598931.520.957275390625,-0.352783203125,0.010986328125
1534598931.520.960205078125,-0.35205078125,0.0107421875
1534598931.520.960205078125,-0.35205078125,0.0107421875
1534598931.520.959716796875,-0.34912109375,0.0068359375
1534598931.530.959716796875,-0.34912109375,0.0068359375
1534598931.530.957275390625,-0.351806640625,0.009765625
1534598931.530.958740234375,-0.35400390625,0.00830078125
1534598931.530.959716796875,-0.35302734375,0.00927734375
1534598931.530.956787109375,-0.35546875,0.012451171875
1534598931.530.95654296875,-0.356201171875,0.007568359375
1534598931.530.96044921875,-0.353271484375,0.00927734375
1534598931.530.960205078125,-0.3525390625,0.00439453125
1534598931.530.961181640625,-0.3515625,0.00439453125
1534598931.530.95947265625,-0.349853515625,0.0107421875
1534598931.530.95947265625,-0.349853515625,0.0107421875
1534598931.540.957275390625,-0.35009765625,0.0087890625
1534598931.540.957275390625,-0.35009765625,0.0087890625
1534598931.540.95947265625,-0.35205078125,0.00927734375
1534598931.540.95947265625,-0.35205078125,0.00927734375
1534598931.540.96142578125,-0.351806640625,0.005615234375
1534598931.540.96142578125,-0.351806640625,0.005615234375
1534598931.540.958740234375,-0.349609375,0.002197265625
1534598931.540.958740234375,-0.349609375,0.002197265625
1534598931.540.957763671875,-0.35107421875,0.005859375
1534598931.540.957763671875,-0.35107421875,0.005859375
1534598931.540.957763671875,-0.354248046875,0.0078125
1534598931.540.957763671875,-0.354248046875,0.0078125
1534598931.540.95751953125,-0.353271484375,0.011474609375
1534598931.540.95751953125,-0.353271484375,0.011474609375
1534598931.540.961181640625,-0.355712890625,0.009521484375
1534598931.540.961181640625,-0.355712890625,0.009521484375
1534598931.540.963623046875,-0.356201171875,0.008544921875
1534598931.540.963623046875,-0.356201171875,0.008544921875
1534598931.540.96435546875,-0.3564453125,0.012939453125
1534598931.550.96435546875,-0.3564453125,0.012939453125
1534598931.550.958251953125,-0.349365234375,0.01025390625
1534598931.550.958984375,-0.355224609375,0.006103515625
1534598931.550.958984375,-0.355224609375,0.006103515625
1534598931.550.962890625,-0.355712890625,0.00927734375
1534598931.550.962890625,-0.355712890625,0.00927734375
1534598931.550.962646484375,-0.35205078125,0.006591796875
1534598931.550.962646484375,-0.35205078125,0.006591796875
1534598931.550.9580078125,-0.353515625,0.003662109375
1534598931.550.9580078125,-0.353515625,0.003662109375
1534598931.550.957275390625,-0.35400390625,0.008544921875
1534598931.550.957275390625,-0.35400390625,0.008544921875
1534598931.550.960205078125,-0.3525390625,0.01171875
1534598931.550.960205078125,-0.3525390625,0.01171875
1534598931.550.95947265625,-0.350341796875,0.010498046875
1534598931.550.95947265625,-0.350341796875,0.010498046875
1534598931.560.96142578125,-0.352783203125,0.012451171875
1534598931.560.96142578125,-0.352783203125,0.012451171875
1534598931.560.9609375,-0.3544921875,0.017333984375
1534598931.560.9609375,-0.3544921875,0.017333984375
1534598931.560.957763671875,-0.351318359375,0.018798828125
1534598931.560.957763671875,-0.351318359375,0.018798828125
1534598931.560.9599609375,-0.350341796875,0.016357421875
1534598931.560.9599609375,-0.350341796875,0.016357421875
1534598931.560.95947265625,-0.352294921875,0.01416015625
1534598931.560.95947265625,-0.352294921875,0.01416015625
1534598931.560.95703125,-0.35595703125,0.015625
1534598931.560.95703125,-0.35595703125,0.015625
1534598931.560.961181640625,-0.355712890625,0.01513671875
1534598931.560.961181640625,-0.355712890625,0.01513671875
1534598931.560.965576171875,-0.35205078125,0.011962890625
1534598931.560.965576171875,-0.35205078125,0.011962890625
1534598931.560.962646484375,-0.351806640625,0.012451171875
1534598931.560.962646484375,-0.351806640625,0.012451171875
1534598931.560.961181640625,-0.35302734375,0.013671875
1534598931.560.961181640625,-0.35302734375,0.013671875
1534598931.570.962890625,-0.353271484375,0.010986328125
1534598931.570.962890625,-0.353271484375,0.010986328125
1534598931.570.9619140625,-0.351318359375,0.008056640625
1534598931.570.9619140625,-0.351318359375,0.008056640625
1534598931.570.960693359375,-0.3486328125,0.0078125
1534598931.570.960693359375,-0.3486328125,0.0078125
1534598931.570.961181640625,-0.3486328125,0.0068359375
1534598931.570.961181640625,-0.3486328125,0.0068359375
1534598931.570.96044921875,-0.350830078125,0.00830078125
1534598931.570.96044921875,-0.350830078125,0.00830078125
1534598931.570.96044921875,-0.353515625,0.01025390625
1534598931.570.96044921875,-0.353515625,0.01025390625
1534598931.570.959716796875,-0.354248046875,0.009033203125
1534598931.570.959716796875,-0.354248046875,0.009033203125
1534598931.570.96044921875,-0.353271484375,0.003173828125
1534598931.570.96044921875,-0.353271484375,0.003173828125
1534598931.570.96484375,-0.3515625,0.005615234375
1534598931.570.96484375,-0.3515625,0.005615234375
1534598931.570.962646484375,-0.351318359375,0.01171875
1534598931.570.962646484375,-0.351318359375,0.01171875
1534598931.580.960205078125,-0.35205078125,0.00634765625
1534598931.580.960205078125,-0.35205078125,0.00634765625
1534598931.580.960205078125,-0.3515625,0.00537109375
1534598931.580.960205078125,-0.3515625,0.00537109375
1534598931.580.95751953125,-0.35302734375,0.006591796875
1534598931.580.95751953125,-0.35302734375,0.006591796875
1534598931.580.957763671875,-0.35595703125,0.008544921875
1534598931.580.96240234375,-0.35595703125,0.008056640625
1534598931.580.96240234375,-0.35595703125,0.008056640625
1534598931.580.962890625,-0.351806640625,0.006591796875
1534598931.580.962890625,-0.351806640625,0.006591796875
1534598931.580.96044921875,-0.35009765625,0.00830078125
1534598931.580.96044921875,-0.35009765625,0.00830078125
1534598931.580.961669921875,-0.351806640625,0.0087890625
1534598931.580.961669921875,-0.351806640625,0.0087890625
1534598931.580.96240234375,-0.35205078125,0.010986328125
1534598931.580.96240234375,-0.35205078125,0.010986328125
1534598931.580.959228515625,-0.3515625,0.010498046875
1534598931.580.959228515625,-0.3515625,0.010498046875
1534598931.590.95849609375,-0.352294921875,0.009033203125
1534598931.590.95849609375,-0.352294921875,0.009033203125
1534598931.590.958984375,-0.35205078125,0.009765625
1534598931.590.958984375,-0.35205078125,0.009765625
1534598931.590.958984375,-0.350341796875,0.011962890625
1534598931.590.958984375,-0.350341796875,0.011962890625
1534598931.590.959716796875,-0.3505859375,0.009521484375
1534598931.590.959716796875,-0.3505859375,0.009521484375
1534598931.590.95947265625,-0.348876953125,0.007568359375
1534598931.590.95947265625,-0.348876953125,0.007568359375
1534598931.590.960205078125,-0.350830078125,0.009521484375
1534598931.590.960205078125,-0.350830078125,0.009521484375
1534598931.590.958740234375,-0.352294921875,0.00732421875
1534598931.590.958740234375,-0.352294921875,0.00732421875
1534598931.590.959228515625,-0.3515625,0.00634765625
1534598931.590.959228515625,-0.3515625,0.00634765625
1534598931.590.95947265625,-0.35302734375,0.010498046875
1534598931.590.95947265625,-0.35302734375,0.010498046875
1534598931.590.9580078125,-0.3515625,0.01611328125
1534598931.590.9580078125,-0.3515625,0.01611328125
1534598931.590.9580078125,-0.35009765625,0.0126953125
1534598931.60.9580078125,-0.35009765625,0.0126953125
1534598931.60.9599609375,-0.351806640625,0.00830078125
1534598931.60.9599609375,-0.351806640625,0.00830078125
1534598931.60.962158203125,-0.355224609375,0.00830078125
1534598931.60.962158203125,-0.355224609375,0.00830078125
1534598931.60.9619140625,-0.355224609375,0.0068359375
1534598931.60.9619140625,-0.355224609375,0.0068359375
1534598931.60.9599609375,-0.351806640625,0.01171875
1534598931.60.9599609375,-0.351806640625,0.01171875
1534598931.60.958251953125,-0.355224609375,0.013671875
1534598931.610.958251953125,-0.355224609375,0.013671875
1534598931.610.95849609375,-0.352783203125,0.009765625
1534598931.610.95849609375,-0.355712890625,0.00830078125
1534598931.610.95849609375,-0.35205078125,0.008544921875
1534598931.610.95849609375,-0.35205078125,0.008544921875
1534598931.610.957763671875,-0.349609375,0.012451171875
1534598931.610.957763671875,-0.349609375,0.012451171875
1534598931.610.958251953125,-0.3515625,0.0107421875
1534598931.610.962158203125,-0.353271484375,0.008056640625
1534598931.610.962158203125,-0.353271484375,0.008056640625
1534598931.620.961181640625,-0.3544921875,0.009521484375
1534598931.620.95703125,-0.3564453125,0.008056640625
1534598931.620.95703125,-0.3564453125,0.008056640625
1534598931.620.96142578125,-0.351318359375,0.0078125
1534598931.620.96142578125,-0.351318359375,0.0078125
1534598931.620.9619140625,-0.3525390625,0.0078125
1534598931.620.96044921875,-0.352783203125,0.00732421875
1534598931.620.96044921875,-0.352783203125,0.00732421875
1534598931.620.9609375,-0.35546875,0.008056640625
1534598931.620.9580078125,-0.353759765625,0.0078125
1534598931.620.9580078125,-0.353759765625,0.0078125
1534598931.620.958984375,-0.35498046875,0.01171875
1534598931.630.959228515625,-0.35107421875,0.015380859375
1534598931.630.959716796875,-0.349853515625,0.0107421875
1534598931.630.959716796875,-0.349853515625,0.0107421875
1534598931.630.960693359375,-0.35546875,0.012939453125
1534598931.640.9609375,-0.35595703125,0.0146484375
1534598931.640.958984375,-0.349609375,0.01171875
1534598931.640.9599609375,-0.34912109375,0.0087890625
1534598931.640.9599609375,-0.34912109375,0.0087890625
1534598931.640.959228515625,-0.352783203125,0.01025390625
1534598931.640.9580078125,-0.35400390625,0.007568359375
1534598931.640.9599609375,-0.353759765625,0.011474609375
1534598931.640.9599609375,-0.353759765625,0.011474609375
1534598931.640.9609375,-0.353515625,0.015625
1534598931.640.9609375,-0.354736328125,0.010009765625
1534598931.640.9609375,-0.354736328125,0.010009765625
1534598931.640.960205078125,-0.3544921875,0.005859375
1534598931.640.960205078125,-0.3544921875,0.005859375
1534598931.650.96142578125,-0.353271484375,0.007080078125
1534598931.650.9560546875,-0.349853515625,0.012451171875
1534598931.650.9560546875,-0.34912109375,0.011962890625
1534598931.650.9560546875,-0.34912109375,0.011962890625
1534598931.650.961181640625,-0.34912109375,0.0146484375
1534598931.650.9609375,-0.35009765625,0.015625
1534598931.650.9609375,-0.35009765625,0.015625
1534598931.650.95947265625,-0.35205078125,0.0126953125
1534598931.650.95947265625,-0.35205078125,0.0126953125
1534598931.650.9609375,-0.351806640625,0.010009765625
1534598931.650.9609375,-0.351806640625,0.010009765625
1534598931.650.960693359375,-0.353759765625,0.01171875
1534598931.650.958984375,-0.355712890625,0.011474609375
1534598931.650.958984375,-0.355712890625,0.011474609375
1534598931.650.95703125,-0.354736328125,0.007568359375
1534598931.660.95703125,-0.354736328125,0.007568359375
1534598931.660.96044921875,-0.352783203125,0.005859375
1534598931.660.96044921875,-0.352783203125,0.005859375
1534598931.660.96044921875,-0.352783203125,0.005859375
1534598931.660.96142578125,-0.351318359375,0.005615234375
1534598931.660.960693359375,-0.350830078125,0.00732421875
1534598931.660.960693359375,-0.350830078125,0.00732421875
1534598931.660.958740234375,-0.35400390625,0.011962890625
1534598931.660.958740234375,-0.35400390625,0.011962890625
1534598931.660.956787109375,-0.3544921875,0.016845703125
1534598931.660.956787109375,-0.3544921875,0.016845703125
1534598931.660.95849609375,-0.353271484375,0.008056640625
1534598931.660.95849609375,-0.353271484375,0.008056640625
1534598931.660.956787109375,-0.352783203125,0.01513671875
1534598931.660.956787109375,-0.352783203125,0.01513671875
1534598931.660.956787109375,-0.352783203125,0.01513671875
1534598931.660.95703125,-0.353515625,0.01318359375
1534598931.660.95703125,-0.353515625,0.01318359375
1534598931.670.963134765625,-0.355224609375,0.0087890625
1534598931.670.96533203125,-0.35400390625,0.007080078125
1534598931.670.96533203125,-0.35400390625,0.007080078125
1534598931.670.964111328125,-0.353515625,0.008544921875
1534598931.670.964111328125,-0.353515625,0.008544921875
1534598931.670.96435546875,-0.355224609375,0.009521484375
1534598931.670.95751953125,-0.35400390625,0.01025390625
1534598931.670.952880859375,-0.350830078125,0.010498046875
1534598931.670.955078125,-0.349609375,0.010498046875
1534598931.670.9609375,-0.351318359375,0.01318359375
1534598931.670.9609375,-0.351318359375,0.01318359375
1534598931.670.963134765625,-0.352783203125,0.01318359375
1534598931.670.963134765625,-0.352783203125,0.01318359375
1534598931.670.960693359375,-0.354248046875,0.010498046875
1534598931.670.960693359375,-0.354248046875,0.010498046875
1534598931.670.956787109375,-0.354248046875,0.010986328125
1534598931.670.956787109375,-0.354248046875,0.010986328125
1534598931.680.956298828125,-0.355712890625,0.010498046875
1534598931.680.956298828125,-0.355712890625,0.010498046875
1534598931.680.96044921875,-0.35546875,0.00830078125
1534598931.680.96044921875,-0.35546875,0.00830078125
1534598931.680.95947265625,-0.352783203125,0.01318359375
1534598931.680.958740234375,-0.351806640625,0.013427734375
1534598931.680.96240234375,-0.351806640625,0.008056640625
1534598931.680.959716796875,-0.353759765625,0.008544921875
1534598931.680.957275390625,-0.357177734375,0.0068359375
1534598931.680.960205078125,-0.35546875,0.006103515625
1534598931.680.960205078125,-0.35546875,0.006103515625
1534598931.680.96044921875,-0.35302734375,0.007568359375
1534598931.680.96044921875,-0.35302734375,0.007568359375
1534598931.680.95947265625,-0.353515625,0.0048828125
1534598931.690.95947265625,-0.353515625,0.0048828125
1534598931.690.9580078125,-0.35302734375,0.005126953125
1534598931.690.96044921875,-0.3515625,0.01025390625
1534598931.690.96044921875,-0.3515625,0.01025390625
1534598931.690.9619140625,-0.35205078125,0.013427734375
1534598931.690.9619140625,-0.35205078125,0.013427734375
1534598931.690.9599609375,-0.3525390625,0.0107421875
1534598931.690.9599609375,-0.3525390625,0.0107421875
1534598931.690.96044921875,-0.348876953125,0.009765625
1534598931.690.96044921875,-0.348876953125,0.009765625
1534598931.690.96142578125,-0.350341796875,0.01171875
1534598931.690.96142578125,-0.350341796875,0.01171875
1534598931.690.958740234375,-0.352294921875,0.01171875
1534598931.690.958740234375,-0.352294921875,0.01171875
1534598931.690.954833984375,-0.3505859375,0.010009765625
1534598931.690.954833984375,-0.3505859375,0.010009765625
1534598931.690.955078125,-0.347900390625,0.00927734375
1534598931.690.955078125,-0.347900390625,0.00927734375
1534598931.690.958984375,-0.348876953125,0.00830078125
1534598931.690.958984375,-0.348876953125,0.00830078125
1534598931.70.9619140625,-0.351806640625,0.00732421875
1534598931.70.9619140625,-0.351806640625,0.00732421875
1534598931.70.96240234375,-0.35107421875,0.010498046875
1534598931.70.96240234375,-0.35107421875,0.010498046875
1534598931.70.9638671875,-0.3515625,0.01416015625
1534598931.70.9638671875,-0.3515625,0.01416015625
1534598931.70.960693359375,-0.35400390625,0.012939453125
1534598931.70.960693359375,-0.35400390625,0.012939453125
1534598931.70.958984375,-0.355224609375,0.014404296875
1534598931.70.958984375,-0.355224609375,0.014404296875
1534598931.70.961181640625,-0.352783203125,0.009521484375
1534598931.70.961181640625,-0.352783203125,0.009521484375
1534598931.70.961669921875,-0.35107421875,-0.00048828125
1534598931.70.961669921875,-0.35107421875,-0.00048828125
1534598931.70.961669921875,-0.350341796875,-0.00146484375
1534598931.70.961669921875,-0.350341796875,-0.00146484375
1534598931.70.95947265625,-0.348388671875,0.004150390625
1534598931.70.95947265625,-0.348388671875,0.004150390625
1534598931.70.959716796875,-0.35107421875,0.01416015625
1534598931.70.959716796875,-0.35107421875,0.01416015625
1534598931.710.960205078125,-0.3515625,0.010986328125
1534598931.710.960205078125,-0.3515625,0.010986328125
1534598931.710.9599609375,-0.350830078125,0.00146484375
1534598931.710.9599609375,-0.350830078125,0.00146484375
1534598931.710.961669921875,-0.35302734375,-0.00146484375
1534598931.710.961669921875,-0.35302734375,-0.00146484375
1534598931.710.961181640625,-0.351318359375,0.00439453125
1534598931.710.961181640625,-0.351318359375,0.00439453125
1534598931.710.961669921875,-0.3515625,0.009765625
1534598931.710.961669921875,-0.3515625,0.009765625
1534598931.710.96240234375,-0.353759765625,0.007080078125
1534598931.710.96240234375,-0.353759765625,0.007080078125
1534598931.710.960693359375,-0.350830078125,0.009765625
1534598931.710.960693359375,-0.350830078125,0.009765625
1534598931.710.96044921875,-0.349365234375,0.01123046875
1534598931.710.96044921875,-0.349365234375,0.01123046875
1534598931.710.9599609375,-0.35302734375,0.009765625
1534598931.710.9599609375,-0.35302734375,0.009765625
1534598931.710.9580078125,-0.353759765625,0.012939453125
1534598931.710.9580078125,-0.353759765625,0.012939453125
1534598931.720.959716796875,-0.352783203125,0.007080078125
1534598931.720.959716796875,-0.352783203125,0.007080078125
1534598931.720.960693359375,-0.35009765625,0.005615234375
1534598931.720.960693359375,-0.35009765625,0.005615234375
1534598931.720.958984375,-0.34912109375,0.01025390625
1534598931.720.958984375,-0.34912109375,0.01025390625
1534598931.720.958251953125,-0.3525390625,0.00634765625
1534598931.720.958251953125,-0.3525390625,0.00634765625
1534598931.720.96044921875,-0.354248046875,0.00537109375
1534598931.720.96044921875,-0.354248046875,0.00537109375
1534598931.720.962158203125,-0.35302734375,0.005859375
1534598931.720.962158203125,-0.35302734375,0.005859375
1534598931.720.964599609375,-0.3515625,0.005615234375
1534598931.720.964599609375,-0.3515625,0.005615234375
1534598931.720.96435546875,-0.354248046875,0.01123046875
1534598931.720.96435546875,-0.354248046875,0.01123046875
1534598931.720.961181640625,-0.354736328125,0.0146484375
1534598931.720.961181640625,-0.354736328125,0.0146484375
1534598931.720.963623046875,-0.350830078125,0.0107421875
1534598931.720.963623046875,-0.350830078125,0.0107421875
1534598931.730.96435546875,-0.347900390625,0.01025390625
1534598931.730.9638671875,-0.351806640625,0.014404296875
1534598931.730.96044921875,-0.355712890625,0.013427734375
1534598931.730.96044921875,-0.355712890625,0.013427734375
1534598931.730.95751953125,-0.35107421875,0.009765625
1534598931.730.95751953125,-0.35107421875,0.009765625
1534598931.730.95849609375,-0.35009765625,0.009765625
1534598931.730.95849609375,-0.35009765625,0.009765625
1534598931.730.959228515625,-0.352294921875,0.014892578125
1534598931.730.959228515625,-0.352294921875,0.014892578125
1534598931.730.960693359375,-0.3525390625,0.015625
1534598931.730.960693359375,-0.3525390625,0.015625
1534598931.730.959716796875,-0.352294921875,0.00732421875
1534598931.730.959716796875,-0.352294921875,0.00732421875
1534598931.730.958251953125,-0.350830078125,0.007568359375
1534598931.730.958251953125,-0.350830078125,0.007568359375
1534598931.730.957763671875,-0.353759765625,0.01171875
1534598931.730.957763671875,-0.353759765625,0.01171875
1534598931.740.959228515625,-0.355712890625,0.01123046875
1534598931.740.959228515625,-0.355712890625,0.01123046875
1534598931.740.961669921875,-0.35400390625,0.006591796875
1534598931.740.961669921875,-0.35400390625,0.006591796875
1534598931.740.962890625,-0.353271484375,0.00390625
1534598931.740.96337890625,-0.353271484375,0.006103515625
1534598931.740.96337890625,-0.353271484375,0.006103515625
1534598931.740.96337890625,-0.353271484375,0.006103515625
1534598931.740.9609375,-0.3564453125,0.01171875
1534598931.740.9609375,-0.3564453125,0.01171875
1534598931.740.958251953125,-0.35595703125,0.012939453125
1534598931.740.958251953125,-0.35595703125,0.012939453125
1534598931.740.95947265625,-0.352294921875,0.00732421875
1534598931.740.95947265625,-0.352294921875,0.00732421875
1534598931.740.9619140625,-0.35205078125,0.0078125
1534598931.740.9619140625,-0.35205078125,0.0078125
1534598931.740.962646484375,-0.3515625,0.01171875
1534598931.740.962646484375,-0.3515625,0.01171875
1534598931.740.960205078125,-0.35107421875,0.014404296875
1534598931.740.960205078125,-0.35107421875,0.014404296875
1534598931.750.9599609375,-0.354248046875,0.0107421875
1534598931.750.9599609375,-0.354248046875,0.0107421875
1534598931.750.961181640625,-0.355712890625,0.008544921875
1534598931.750.961181640625,-0.355712890625,0.008544921875
1534598931.750.9599609375,-0.352783203125,0.011474609375
1534598931.750.9599609375,-0.352783203125,0.011474609375
1534598931.750.959716796875,-0.353759765625,0.01416015625
1534598931.750.959716796875,-0.353759765625,0.01416015625
1534598931.750.9619140625,-0.354248046875,0.010009765625
1534598931.750.9619140625,-0.354248046875,0.010009765625
1534598931.750.959716796875,-0.352294921875,0.008056640625
1534598931.750.959716796875,-0.352294921875,0.008056640625
1534598931.750.956298828125,-0.351806640625,0.00830078125
1534598931.750.956298828125,-0.351806640625,0.00830078125
1534598931.750.95849609375,-0.352783203125,0.009765625
1534598931.750.95849609375,-0.352783203125,0.009765625
1534598931.750.960205078125,-0.35400390625,0.009521484375
1534598931.750.960205078125,-0.35400390625,0.009521484375
1534598931.760.956787109375,-0.354736328125,0.00830078125
1534598931.760.96044921875,-0.354736328125,0.012939453125
1534598931.770.961669921875,-0.355224609375,0.009033203125
1534598931.770.95556640625,-0.35302734375,0.01025390625
1534598931.770.954345703125,-0.3486328125,0.010498046875
1534598931.770.954345703125,-0.3486328125,0.010498046875
1534598931.770.95654296875,-0.35107421875,0.010498046875
1534598931.770.95654296875,-0.35107421875,0.010498046875
1534598931.770.95751953125,-0.354248046875,0.009765625
1534598931.770.95703125,-0.352783203125,0.009521484375
1534598931.770.95703125,-0.352783203125,0.009521484375
1534598931.770.959228515625,-0.352783203125,0.008544921875
1534598931.770.958740234375,-0.353271484375,0.0068359375
1534598931.770.960205078125,-0.353515625,0.005859375
1534598931.770.960205078125,-0.353515625,0.005859375
1534598931.770.9619140625,-0.353759765625,0.005859375
1534598931.770.959228515625,-0.353515625,0.005615234375
1534598931.780.959228515625,-0.353515625,0.005615234375
1534598931.780.95703125,-0.3525390625,0.005859375
1534598931.780.960205078125,-0.350341796875,0.01123046875
1534598931.780.9638671875,-0.34912109375,0.008056640625
1534598931.780.9638671875,-0.34912109375,0.008056640625
1534598931.780.961181640625,-0.349853515625,0.007080078125
1534598931.780.963134765625,-0.35302734375,0.010498046875
1534598931.790.963134765625,-0.35302734375,0.010498046875
1534598931.790.962646484375,-0.3525390625,0.0078125
1534598931.790.962646484375,-0.3525390625,0.0078125
1534598931.790.9580078125,-0.35205078125,0.00244140625
1534598931.790.9580078125,-0.349365234375,0.007080078125
1534598931.790.9580078125,-0.349365234375,0.007080078125
1534598931.790.9580078125,-0.349853515625,0.013671875
1534598931.790.960205078125,-0.352294921875,0.013427734375
1534598931.790.960205078125,-0.352294921875,0.013427734375
1534598931.790.958740234375,-0.349853515625,0.0068359375
1534598931.790.958740234375,-0.349853515625,0.0068359375
1534598931.790.95751953125,-0.34912109375,0.006591796875
1534598931.790.957763671875,-0.3505859375,0.010498046875
1534598931.790.957763671875,-0.352294921875,0.012939453125
1534598931.80.957763671875,-0.352294921875,0.012939453125
1534598931.80.958984375,-0.353515625,0.009033203125
1534598931.80.95947265625,-0.35400390625,0.00634765625
1534598931.80.95947265625,-0.35400390625,0.00634765625
1534598931.80.95703125,-0.353515625,0.005126953125
1534598931.80.95703125,-0.353515625,0.005126953125
1534598931.80.957763671875,-0.349853515625,0.004150390625
1534598931.80.9580078125,-0.348876953125,0.0048828125
1534598931.80.9580078125,-0.348876953125,0.0048828125
1534598931.80.956787109375,-0.354736328125,0.005615234375
1534598931.80.960693359375,-0.357421875,0.010498046875
1534598931.80.960693359375,-0.357421875,0.010498046875
1534598931.810.961669921875,-0.3544921875,0.01416015625
1534598931.810.959716796875,-0.353759765625,0.0107421875
1534598931.810.9609375,-0.3515625,0.01025390625
1534598931.810.962158203125,-0.35009765625,0.008544921875
1534598931.810.962158203125,-0.35009765625,0.008544921875
1534598931.810.959716796875,-0.3515625,0.009521484375
1534598931.810.96044921875,-0.354736328125,0.009033203125
1534598931.810.96044921875,-0.354736328125,0.009033203125
1534598931.810.96435546875,-0.3525390625,0.00634765625
1534598931.810.96435546875,-0.3525390625,0.00634765625
1534598931.810.96533203125,-0.35205078125,0.00732421875
1534598931.810.96533203125,-0.35205078125,0.00732421875
1534598931.810.96533203125,-0.35205078125,0.00732421875
1534598931.810.962646484375,-0.3544921875,0.0107421875
1534598931.810.96142578125,-0.3544921875,0.012451171875
1534598931.810.96142578125,-0.3544921875,0.012451171875
1534598931.810.96142578125,-0.3544921875,0.012451171875
1534598931.820.960693359375,-0.3544921875,0.009765625
1534598931.820.960693359375,-0.353759765625,0.006103515625
1534598931.820.960693359375,-0.353759765625,0.006103515625
1534598931.820.960693359375,-0.353759765625,0.006103515625
1534598931.820.962646484375,-0.35302734375,0.0087890625
1534598931.820.962158203125,-0.35205078125,0.012939453125
1534598931.820.962158203125,-0.35205078125,0.012939453125
1534598931.820.961669921875,-0.35302734375,0.010498046875
1534598931.820.961669921875,-0.35302734375,0.010498046875
1534598931.820.962158203125,-0.354736328125,0.004638671875
1534598931.820.962158203125,-0.354736328125,0.004638671875
1534598931.820.960205078125,-0.354248046875,0.006591796875
1534598931.820.960205078125,-0.354248046875,0.006591796875
1534598931.820.9609375,-0.352783203125,0.014404296875
1534598931.820.9609375,-0.352783203125,0.014404296875
1534598931.820.963134765625,-0.351806640625,0.01318359375
1534598931.820.963134765625,-0.351806640625,0.01318359375
1534598931.820.96044921875,-0.352783203125,0.011474609375
1534598931.820.96044921875,-0.352783203125,0.011474609375
1534598931.830.958740234375,-0.352783203125,0.011474609375
1534598931.830.959716796875,-0.3505859375,0.010009765625
1534598931.830.959716796875,-0.3505859375,0.010009765625
1534598931.830.9599609375,-0.3525390625,0.01220703125
1534598931.830.9599609375,-0.3525390625,0.01220703125
1534598931.830.96142578125,-0.352294921875,0.0166015625
1534598931.830.96142578125,-0.352294921875,0.0166015625
1534598931.830.963134765625,-0.34912109375,0.01513671875
1534598931.830.963134765625,-0.34912109375,0.01513671875
1534598931.830.9619140625,-0.35205078125,0.01025390625
1534598931.830.9619140625,-0.35205078125,0.01025390625
1534598931.830.9619140625,-0.354736328125,0.007568359375
1534598931.830.9619140625,-0.354736328125,0.007568359375
1534598931.830.9638671875,-0.353759765625,0.0078125
1534598931.830.9638671875,-0.353759765625,0.0078125
1534598931.830.96337890625,-0.3515625,0.006591796875
1534598931.830.96337890625,-0.3515625,0.006591796875
1534598931.830.96142578125,-0.350830078125,0.00537109375
1534598931.830.96142578125,-0.350830078125,0.00537109375
1534598931.830.958984375,-0.3486328125,0.005859375
1534598931.840.958984375,-0.3486328125,0.005859375
1534598931.840.95703125,-0.346923828125,0.0078125
1534598931.840.95703125,-0.346923828125,0.0078125
1534598931.840.958251953125,-0.350341796875,0.010009765625
1534598931.840.960205078125,-0.35302734375,0.008544921875
1534598931.840.960205078125,-0.35302734375,0.008544921875
1534598931.840.962890625,-0.35498046875,0.007568359375
1534598931.840.962890625,-0.35498046875,0.007568359375
1534598931.840.962890625,-0.35498046875,0.007568359375
1534598931.840.963134765625,-0.3564453125,0.009521484375
1534598931.840.963134765625,-0.3564453125,0.009521484375
1534598931.840.959228515625,-0.3544921875,0.006103515625
1534598931.840.959228515625,-0.3544921875,0.006103515625
1534598931.840.9580078125,-0.354248046875,0.005859375
1534598931.840.9580078125,-0.354248046875,0.005859375
1534598931.840.95947265625,-0.354736328125,0.008056640625
1534598931.840.95947265625,-0.354736328125,0.008056640625
1534598931.840.96142578125,-0.35498046875,0.003173828125
1534598931.840.96142578125,-0.35498046875,0.003173828125
1534598931.840.960693359375,-0.355224609375,0.008056640625
1534598931.850.960693359375,-0.355224609375,0.008056640625
1534598931.850.958251953125,-0.355224609375,0.0107421875
1534598931.850.958251953125,-0.355224609375,0.0107421875
1534598931.850.957275390625,-0.3564453125,0.00927734375
1534598931.850.957275390625,-0.3564453125,0.00927734375
1534598931.850.957275390625,-0.3544921875,0.0107421875
1534598931.850.957275390625,-0.3544921875,0.0107421875
1534598931.850.962890625,-0.35205078125,0.0087890625
1534598931.850.962890625,-0.35205078125,0.0087890625
1534598931.850.96435546875,-0.353515625,0.005126953125
1534598931.850.96435546875,-0.353515625,0.005126953125
1534598931.850.959716796875,-0.35595703125,0.008056640625
1534598931.850.959716796875,-0.35595703125,0.008056640625
1534598931.850.960205078125,-0.35498046875,0.012451171875
1534598931.850.960205078125,-0.35498046875,0.012451171875
1534598931.850.96337890625,-0.352294921875,0.007080078125
1534598931.850.96337890625,-0.352294921875,0.007080078125
1534598931.850.96435546875,-0.35302734375,0.00732421875
1534598931.850.96435546875,-0.35302734375,0.00732421875
1534598931.850.961669921875,-0.35302734375,0.01171875
1534598931.860.961669921875,-0.35302734375,0.01171875
1534598931.860.957763671875,-0.35546875,0.009521484375
1534598931.860.957763671875,-0.35546875,0.009521484375
1534598931.860.960205078125,-0.356201171875,0.0087890625
1534598931.860.960205078125,-0.356201171875,0.0087890625
1534598931.860.961181640625,-0.35302734375,0.0126953125
1534598931.860.961181640625,-0.35302734375,0.0126953125
1534598931.860.95751953125,-0.3525390625,0.010986328125
1534598931.860.95751953125,-0.3525390625,0.010986328125
1534598931.860.959228515625,-0.3505859375,0.008056640625
1534598931.860.959228515625,-0.3505859375,0.008056640625
1534598931.860.961181640625,-0.352294921875,0.011962890625
1534598931.860.9638671875,-0.356201171875,0.01220703125
1534598931.860.9638671875,-0.356201171875,0.01220703125
1534598931.860.961669921875,-0.353759765625,0.011962890625
1534598931.860.961669921875,-0.353759765625,0.011962890625
1534598931.860.95849609375,-0.352783203125,0.00732421875
1534598931.860.95849609375,-0.352783203125,0.00732421875
1534598931.860.956787109375,-0.35546875,0.006591796875
1534598931.860.956787109375,-0.35546875,0.006591796875
1534598931.870.95703125,-0.35498046875,0.01171875
1534598931.870.95703125,-0.35498046875,0.01171875
1534598931.870.960693359375,-0.355224609375,0.007080078125
1534598931.870.960693359375,-0.355224609375,0.007080078125
1534598931.870.9619140625,-0.35498046875,0.005126953125
1534598931.870.9619140625,-0.35498046875,0.005126953125
1534598931.870.962646484375,-0.354736328125,0.01171875
1534598931.870.962646484375,-0.354736328125,0.01171875
1534598931.870.9609375,-0.3515625,0.01025390625
1534598931.870.9609375,-0.3515625,0.01025390625
1534598931.870.9599609375,-0.3486328125,0.00830078125
1534598931.870.9599609375,-0.3486328125,0.00830078125
1534598931.870.96044921875,-0.35009765625,0.01171875
1534598931.870.96044921875,-0.35009765625,0.01171875
1534598931.870.958984375,-0.350830078125,0.008544921875
1534598931.870.958984375,-0.350830078125,0.008544921875
1534598931.870.956298828125,-0.354736328125,0.010498046875
1534598931.870.956298828125,-0.354736328125,0.010498046875
1534598931.870.95703125,-0.358642578125,0.013671875
1534598931.870.95703125,-0.358642578125,0.013671875
1534598931.880.95947265625,-0.35595703125,0.011962890625
1534598931.880.95947265625,-0.35595703125,0.011962890625
1534598931.880.959228515625,-0.3564453125,0.008544921875
1534598931.880.959228515625,-0.3564453125,0.008544921875
1534598931.880.959228515625,-0.35693359375,0.007080078125
1534598931.880.959228515625,-0.35693359375,0.007080078125
1534598931.880.959228515625,-0.35302734375,0.0087890625
1534598931.880.959228515625,-0.35302734375,0.0087890625
1534598931.880.9609375,-0.351318359375,0.0146484375
1534598931.880.9609375,-0.351318359375,0.0146484375
1534598931.880.96240234375,-0.34912109375,0.0166015625
1534598931.880.96240234375,-0.34912109375,0.0166015625
1534598931.880.961181640625,-0.349365234375,0.012939453125
1534598931.880.961181640625,-0.349365234375,0.012939453125
1534598931.880.96142578125,-0.35302734375,0.011474609375
1534598931.880.96142578125,-0.35302734375,0.011474609375
1534598931.880.96142578125,-0.35546875,0.00830078125
1534598931.880.96142578125,-0.35546875,0.00830078125
1534598931.880.958984375,-0.3505859375,0.006591796875
1534598931.880.958984375,-0.3505859375,0.006591796875
1534598931.890.95849609375,-0.349609375,0.0087890625
1534598931.890.95849609375,-0.349609375,0.0087890625
1534598931.890.96142578125,-0.350830078125,0.00830078125
1534598931.890.96142578125,-0.350830078125,0.00830078125
1534598931.890.958740234375,-0.3525390625,0.0087890625
1534598931.890.958740234375,-0.3525390625,0.0087890625
1534598931.890.95751953125,-0.35498046875,0.009521484375
1534598931.890.95751953125,-0.35498046875,0.009521484375
1534598931.890.95849609375,-0.35400390625,0.007080078125
1534598931.890.95849609375,-0.35400390625,0.007080078125
1534598931.890.9599609375,-0.3544921875,0.005859375
1534598931.890.9599609375,-0.3544921875,0.005859375
1534598931.890.959716796875,-0.35205078125,0.005126953125
1534598931.890.959716796875,-0.35205078125,0.005126953125
1534598931.890.9580078125,-0.3505859375,0.008544921875
1534598931.890.9580078125,-0.3505859375,0.008544921875
1534598931.890.963134765625,-0.350830078125,0.010498046875
1534598931.890.963134765625,-0.350830078125,0.010498046875
1534598931.890.962158203125,-0.351318359375,0.00927734375
1534598931.890.962158203125,-0.351318359375,0.00927734375
1534598931.90.958740234375,-0.35400390625,0.01025390625
1534598931.90.958740234375,-0.35400390625,0.01025390625
1534598931.90.95947265625,-0.354736328125,0.01416015625
1534598931.90.95947265625,-0.354736328125,0.01416015625
1534598931.90.95751953125,-0.35400390625,0.016845703125
1534598931.90.95751953125,-0.35400390625,0.016845703125
1534598931.90.953857421875,-0.354736328125,0.013671875
1534598931.90.953857421875,-0.354736328125,0.013671875
1534598931.90.9560546875,-0.352294921875,0.01123046875
1534598931.90.9560546875,-0.352294921875,0.01123046875
1534598931.90.958740234375,-0.349853515625,0.010009765625
1534598931.90.958740234375,-0.349853515625,0.010009765625
1534598931.910.961181640625,-0.35009765625,0.009765625
1534598931.910.9580078125,-0.353515625,0.007080078125
1534598931.910.960693359375,-0.353271484375,0.004638671875
1534598931.910.960693359375,-0.353271484375,0.004638671875
1534598931.910.960693359375,-0.35498046875,0.0078125
1534598931.910.96142578125,-0.35693359375,0.00537109375
1534598931.910.96142578125,-0.35693359375,0.00537109375
1534598931.910.958740234375,-0.354736328125,0.011962890625
1534598931.910.958740234375,-0.354736328125,0.011962890625
1534598931.920.959716796875,-0.3583984375,0.010009765625
1534598931.920.958251953125,-0.352294921875,0.0068359375
1534598931.920.958251953125,-0.352294921875,0.0068359375
1534598931.920.9619140625,-0.353515625,0.009765625
1534598931.920.960205078125,-0.354736328125,0.011474609375
1534598931.920.960205078125,-0.354736328125,0.011474609375
1534598931.920.958740234375,-0.35546875,0.0126953125
1534598931.920.961669921875,-0.357666015625,0.006591796875
1534598931.920.961669921875,-0.357666015625,0.006591796875
1534598931.920.96240234375,-0.35888671875,0.0078125
1534598931.920.96240234375,-0.35888671875,0.0078125
1534598931.920.959716796875,-0.356201171875,0.012939453125
1534598931.930.95849609375,-0.35205078125,0.012939453125
1534598931.930.95849609375,-0.35205078125,0.012939453125
1534598931.930.96142578125,-0.352783203125,0.011474609375
1534598931.930.96142578125,-0.352783203125,0.011474609375
1534598931.930.959228515625,-0.353759765625,0.0068359375
1534598931.930.959228515625,-0.353759765625,0.0068359375
1534598931.940.958984375,-0.354248046875,0.005859375
1534598931.940.956787109375,-0.353515625,0.005859375
1534598931.940.956787109375,-0.353515625,0.005859375
1534598931.940.957763671875,-0.35107421875,0.00927734375
1534598931.940.96435546875,-0.351806640625,0.008544921875
1534598931.940.964599609375,-0.351806640625,0.010986328125
1534598931.940.964599609375,-0.351806640625,0.010986328125
1534598931.940.959716796875,-0.3505859375,0.011962890625
1534598931.940.95849609375,-0.3525390625,0.0087890625
1534598931.940.960693359375,-0.35302734375,0.00634765625
1534598931.940.960693359375,-0.35302734375,0.00634765625
1534598931.940.9609375,-0.353515625,0.009033203125
1534598931.940.96044921875,-0.35546875,0.012939453125
1534598931.940.96044921875,-0.35546875,0.012939453125
1534598931.950.96142578125,-0.35400390625,0.0078125
1534598931.950.96044921875,-0.354736328125,0.005615234375
1534598931.950.9599609375,-0.35400390625,0.0009765625
1534598931.950.960693359375,-0.353271484375,0.00341796875
1534598931.950.960693359375,-0.353271484375,0.00341796875
1534598931.950.957275390625,-0.355224609375,0.002685546875
1534598931.950.95703125,-0.357177734375,0.0048828125
1534598931.950.95703125,-0.357177734375,0.0048828125
1534598931.950.960205078125,-0.357177734375,0.005859375
1534598931.950.960205078125,-0.357177734375,0.005859375
1534598931.960.961669921875,-0.35400390625,0.00390625
1534598931.960.961669921875,-0.35400390625,0.00390625
1534598931.960.96044921875,-0.352783203125,0.009033203125
1534598931.960.959716796875,-0.350830078125,0.0107421875
1534598931.960.960205078125,-0.34814453125,0.012939453125
1534598931.960.960205078125,-0.34814453125,0.012939453125
1534598931.960.9599609375,-0.350830078125,0.013671875
1534598931.960.9599609375,-0.350830078125,0.013671875
1534598931.960.961181640625,-0.352783203125,0.008056640625
1534598931.960.961181640625,-0.352783203125,0.008056640625
1534598931.960.95849609375,-0.3525390625,0.00537109375
1534598931.960.95849609375,-0.3525390625,0.00537109375
1534598931.960.95751953125,-0.3544921875,0.008544921875
1534598931.960.95751953125,-0.3544921875,0.008544921875
1534598931.960.958251953125,-0.3525390625,0.008544921875
1534598931.960.960693359375,-0.35107421875,0.0078125
1534598931.960.960693359375,-0.35107421875,0.0078125
1534598931.960.9609375,-0.353271484375,0.006103515625
1534598931.970.9609375,-0.353271484375,0.006103515625
1534598931.970.960205078125,-0.352783203125,0.007080078125
1534598931.970.960205078125,-0.352783203125,0.007080078125
1534598931.970.958984375,-0.353271484375,0.008056640625
1534598931.970.958984375,-0.353271484375,0.008056640625
1534598931.970.955322265625,-0.354248046875,0.00732421875
1534598931.970.955322265625,-0.354248046875,0.00732421875
1534598931.970.958251953125,-0.352783203125,0.007568359375
1534598931.970.958251953125,-0.352783203125,0.007568359375
1534598931.970.9609375,-0.351806640625,0.009765625
1534598931.970.956787109375,-0.3544921875,0.015625
1534598931.970.956787109375,-0.3544921875,0.015625
1534598931.970.95947265625,-0.353759765625,0.012451171875
1534598931.970.95947265625,-0.353759765625,0.012451171875
1534598931.970.960205078125,-0.356201171875,0.009521484375
1534598931.970.960205078125,-0.356201171875,0.009521484375
1534598931.970.957763671875,-0.35400390625,0.0078125
1534598931.980.957763671875,-0.35400390625,0.0078125
