CSV format: Accelerometer x value, acclerometer y value, accelerometer z value, gyroscope x value, gyroscope y value, gyroscope z value
Sample frequency: 100Hz
1534606250.621.71661376953,0.9765625,-0.839233398438
1534606250.621.79290771484,0.999450683594,-0.724792480469
1534606250.631.68609619141,1.00708007812,-0.679016113281
1534606250.631.51824951172,1.29699707031,-0.717163085938
1534606250.631.3427734375,1.28936767578,-0.839233398438
1534606250.631.68609619141,1.50299072266,-0.831604003906
1534606250.631.55639648438,1.57165527344,-0.877380371094
1534606250.631.38092041016,1.19018554688,-0.862121582031
1534606250.641.57165527344,1.19018554688,-0.679016113281
1534606250.641.42669677734,1.15966796875,-0.595092773438
1534606250.641.64031982422,0.984191894531,-0.701904296875
1534606250.641.47247314453,0.785827636719,-0.556945800781
1534606250.641.69372558594,0.9765625,-0.602722167969
1534606250.641.51824951172,1.06811523438,-0.572204589844
1534606250.641.60217285156,0.694274902344,-0.30517578125
1534606250.651.57928466797,0.404357910156,-0.396728515625
1534606250.651.39617919922,0.495910644531,-0.297546386719
1534606250.651.67846679688,0.587463378906,-0.175476074219
1534606250.651.57928466797,0.06103515625,0.0762939453125
1534606250.651.48773193359,0.0,-0.175476074219
1534606250.661.45721435547,0.0,0.114440917969
1534606250.661.66320800781,-0.0534057617188,0.0686645507812
1534606250.661.39617919922,-0.358581542969,-0.0839233398438
1534606250.661.220703125,-0.541687011719,0.0686645507812
1534606250.661.54876708984,-0.42724609375,0.30517578125
1534606250.671.49536132812,-0.48828125,0.419616699219
1534606250.671.46484375,-0.335693359375,0.320434570312
1534606250.671.44958496094,-0.419616699219,0.358581542969
1534606250.671.53350830078,-0.213623046875,0.335693359375
1534606250.671.54876708984,0.152587890625,-0.00762939453125
1534606250.681.64794921875,0.160217285156,-0.0457763671875
1534606250.681.48773193359,0.137329101562,-0.0686645507812
1534606250.681.69372558594,0.411987304688,-0.236511230469
1534606250.681.67846679688,0.42724609375,-0.328063964844
1534606250.681.54876708984,0.595092773438,-0.480651855469
1534606250.691.83868408203,0.900268554688,-0.518798828125
1534606250.691.68609619141,1.05285644531,-0.808715820312
1534606250.691.60980224609,1.35803222656,-0.732421875
1534606250.691.48010253906,1.32751464844,-0.8544921875
1534606250.691.64794921875,1.35040283203,-1.09100341797
1534606250.71.67846679688,1.41906738281,-1.15203857422
1534606250.71.76239013672,1.70135498047,-1.12152099609
1534606250.71.61743164062,1.74713134766,-1.15203857422
1534606250.71.66320800781,1.48773193359,-1.02233886719
1534606250.71.57165527344,1.59454345703,-1.06811523438
1534606250.71.54113769531,1.56402587891,-1.08337402344
1534606250.711.63269042969,1.12915039062,-1.06811523438
1534606250.711.53350830078,1.31225585938,-0.869750976562
1534606250.711.80816650391,1.15966796875,-0.801086425781
1534606250.711.60980224609,1.25122070312,-0.511169433594
1534606250.721.51062011719,0.755310058594,-0.640869140625
1534606250.721.50299072266,0.587463378906,-0.457763671875
1534606250.721.36566162109,0.541687011719,-0.267028808594
1534606250.721.41906738281,0.114440917969,0.0381469726562
1534606250.721.60980224609,0.274658203125,-0.0839233398438
1534606250.721.54876708984,0.0228881835938,0.0686645507812
1534606250.731.54876708984,-0.0534057617188,0.251770019531
1534606250.731.48010253906,-0.221252441406,0.320434570312
1534606250.731.41906738281,-0.152587890625,0.251770019531
1534606250.731.49536132812,-0.18310546875,0.091552734375
1534606250.731.3427734375,-0.106811523438,0.137329101562
1534606250.731.39617919922,-0.503540039062,0.236511230469
1534606250.731.38092041016,-0.602722167969,0.137329101562
1534606250.731.51062011719,-0.556945800781,0.152587890625
1534606250.731.47247314453,-0.595092773438,0.205993652344
1534606250.741.36566162109,-0.740051269531,0.450134277344
1534606250.741.32751464844,-0.732421875,0.465393066406
1534606250.741.36566162109,-0.419616699219,0.297546386719
1534606250.741.38854980469,-0.267028808594,0.160217285156
1534606250.741.44958496094,-0.244140625,0.282287597656
1534606250.751.54876708984,0.152587890625,0.0152587890625
1534606250.751.63269042969,1.06811523438,-0.526428222656
1534606250.761.45721435547,1.21307373047,-0.709533691406
1534606250.761.51824951172,1.36566162109,-1.19781494141
1534606250.761.51062011719,1.220703125,-1.31225585938
1534606250.761.72424316406,1.32751464844,-1.06811523438
1534606250.761.60980224609,1.35040283203,-1.03759765625
1534606250.761.44958496094,1.31225585938,-0.968933105469
1534606250.761.45721435547,1.27410888672,-0.8544921875
1534606250.771.53350830078,1.73187255859,-0.984191894531
1534606250.771.47247314453,1.64794921875,-1.02996826172
1534606250.771.67083740234,1.53350830078,-1.32751464844
1534606250.771.71661376953,1.73950195312,-1.28173828125
1534606250.771.84631347656,1.83868408203,-1.12152099609
1534606250.771.57928466797,1.93023681641,-0.991821289062
1534606250.771.60217285156,1.47247314453,-0.923156738281
1534606250.781.73950195312,1.32751464844,-0.869750976562
1534606250.781.69372558594,1.47247314453,-0.869750976562
1534606250.781.39617919922,0.930786132812,-0.732421875
1534606250.781.61743164062,1.04522705078,-0.831604003906
1534606250.781.42669677734,1.06048583984,-0.465393066406
1534606250.781.5869140625,0.625610351562,-0.54931640625
1534606250.781.5869140625,0.3662109375,-0.511169433594
1534606250.791.61743164062,0.465393066406,-0.389099121094
1534606250.791.43432617188,0.343322753906,-0.175476074219
1534606250.791.42669677734,0.18310546875,-0.144958496094
1534606250.791.51062011719,0.190734863281,0.00762939453125
1534606250.791.30462646484,-0.1220703125,0.030517578125
1534606250.791.52587890625,-0.251770019531,0.0
1534606250.791.35040283203,-0.3662109375,0.167846679688
1534606250.81.708984375,-0.511169433594,0.251770019531
1534606250.81.87683105469,-0.434875488281,0.518798828125
1534606250.81.54113769531,-0.328063964844,0.465393066406
1534606250.81.38092041016,-0.473022460938,0.450134277344
1534606250.81.48773193359,-0.579833984375,0.541687011719
1534606250.81.55639648438,-0.480651855469,0.259399414062
1534606250.811.47247314453,-0.358581542969,0.450134277344
1534606250.811.45721435547,-0.312805175781,0.228881835938
1534606250.811.30462646484,-0.465393066406,0.0991821289062
1534606250.811.35803222656,0.228881835938,-0.114440917969
1534606250.811.60980224609,-0.0381469726562,0.0686645507812
1534606250.821.33514404297,0.0839233398438,-0.564575195312
1534606250.821.55639648438,0.541687011719,-0.328063964844
1534606250.821.41143798828,0.457763671875,-0.289916992188
1534606250.821.53350830078,0.67138671875,-0.6103515625
1534606250.831.57165527344,0.732421875,-0.411987304688
1534606250.831.45721435547,1.02233886719,-0.785827636719
1534606250.831.42669677734,1.220703125,-0.808715820312
1534606250.831.76239013672,1.43432617188,-0.9765625
1534606250.831.64031982422,1.38854980469,-0.778198242188
1534606250.831.57165527344,1.54876708984,-0.892639160156
1534606250.841.50299072266,1.39617919922,-0.823974609375
1534606250.841.71661376953,1.28936767578,-0.869750976562
1534606250.841.74713134766,1.57165527344,-1.09100341797
1534606250.841.50299072266,1.01470947266,-0.907897949219
1534606250.841.50299072266,0.839233398438,-0.91552734375
1534606250.851.32751464844,1.02996826172,-0.946044921875
1534606250.851.51062011719,0.831604003906,-0.54931640625
1534606250.851.57928466797,0.900268554688,-0.389099121094
1534606250.851.45721435547,0.823974609375,-0.450134277344
1534606250.851.67846679688,0.839233398438,-0.518798828125
1534606250.851.38092041016,0.816345214844,-0.3662109375
1534606250.861.63269042969,0.450134277344,-0.480651855469
1534606250.861.76239013672,0.511169433594,-0.473022460938
1534606250.861.64794921875,0.541687011719,-0.274658203125
1534606250.861.51824951172,0.511169433594,-0.1220703125
1534606250.861.46484375,0.6103515625,-0.434875488281
1534606250.871.5869140625,0.450134277344,-0.3662109375
1534606250.871.61743164062,0.495910644531,-0.0534057617188
1534606250.871.55639648438,0.42724609375,-0.030517578125
1534606250.871.38854980469,0.06103515625,-0.0839233398438
1534606250.871.25122070312,0.267028808594,-0.144958496094
1534606250.871.36566162109,0.267028808594,-0.18310546875
1534606250.871.63269042969,0.442504882812,-0.144958496094
1534606250.871.76239013672,0.579833984375,-0.175476074219
1534606250.881.46484375,0.221252441406,-0.297546386719
1534606250.881.55639648438,0.244140625,-0.129699707031
1534606250.881.52587890625,0.602722167969,-0.175476074219
1534606250.881.39617919922,0.526428222656,-0.42724609375
1534606250.881.67083740234,0.358581542969,-0.434875488281
1534606250.881.3427734375,0.434875488281,-0.3662109375
1534606250.891.65557861328,0.6103515625,-0.358581542969
1534606250.891.57165527344,0.663757324219,-0.0839233398438
1534606250.891.64794921875,0.595092773438,-0.267028808594
1534606250.891.78527832031,0.679016113281,-0.42724609375
1534606250.91.77001953125,0.877380371094,-0.350952148438
1534606250.91.75476074219,0.67138671875,-0.30517578125
1534606250.91.63269042969,0.48828125,-0.259399414062
1534606250.91.50299072266,0.396728515625,-0.282287597656
1534606250.91.5869140625,0.282287597656,-0.289916992188
1534606250.911.36566162109,0.6103515625,-0.221252441406
1534606250.911.42669677734,0.274658203125,-0.221252441406
1534606250.911.43432617188,-0.0534057617188,-0.289916992188
1534606250.911.77764892578,0.495910644531,-0.267028808594
1534606250.911.73950195312,0.79345703125,-0.205993652344
1534606250.911.44958496094,0.404357910156,-0.0991821289062
1534606250.911.55639648438,0.0,-0.221252441406
1534606250.921.60980224609,0.221252441406,-0.244140625
1534606250.921.39617919922,0.18310546875,-0.228881835938
1534606250.921.36566162109,0.228881835938,-0.18310546875
1534606250.921.28173828125,0.267028808594,0.0686645507812
1534606250.921.53350830078,0.175476074219,-0.144958496094
1534606250.921.77001953125,-0.030517578125,-0.282287597656
1534606250.921.44195556641,0.213623046875,-0.259399414062
1534606250.931.28173828125,0.213623046875,-0.198364257812
1534606250.931.63269042969,0.434875488281,-0.129699707031
1534606250.931.46484375,0.30517578125,-0.244140625
1534606250.931.51824951172,0.267028808594,-0.244140625
1534606250.931.60217285156,0.617980957031,-0.289916992188
1534606250.931.76239013672,0.709533691406,-0.419616699219
1534606250.931.73950195312,0.602722167969,-0.434875488281
1534606250.941.50299072266,0.709533691406,-0.457763671875
1534606250.941.57165527344,0.900268554688,-0.526428222656
1534606250.941.41906738281,1.06811523438,-0.503540039062
1534606250.941.55639648438,0.846862792969,-0.762939453125
1534606250.941.35040283203,1.06048583984,-0.91552734375
1534606250.941.76239013672,1.32751464844,-0.938415527344
1534606250.941.72424316406,1.25122070312,-0.79345703125
1534606250.951.56402587891,1.31988525391,-0.595092773438
1534606250.951.35040283203,1.54113769531,-0.79345703125
1534606250.951.46484375,1.32751464844,-0.648498535156
1534606250.951.3427734375,1.27410888672,-0.968933105469
1534606250.951.41906738281,1.44958496094,-1.00708007812
1534606250.961.85394287109,1.12915039062,-0.885009765625
1534606250.961.44195556641,1.18255615234,-0.8544921875
1534606250.961.56402587891,0.930786132812,-0.968933105469
1534606250.961.61743164062,1.02233886719,-0.747680664062
1534606250.971.83868408203,1.02996826172,-0.747680664062
1534606250.971.40380859375,0.740051269531,-0.740051269531
1534606250.971.62506103516,0.778198242188,-0.740051269531
1534606250.971.56402587891,0.984191894531,-0.396728515625
1534606250.971.51062011719,0.770568847656,-0.350952148438
1534606250.971.13677978516,0.282287597656,-0.297546386719
1534606250.981.19781494141,0.503540039062,-0.228881835938
1534606250.981.82342529297,0.556945800781,-0.06103515625
1534606250.981.60217285156,0.0228881835938,-0.0991821289062
1534606250.981.57928466797,0.175476074219,-0.030517578125
1534606250.981.67083740234,0.137329101562,0.137329101562
1534606250.981.63269042969,0.144958496094,-0.0534057617188
1534606250.991.44958496094,0.0534057617188,0.267028808594
1534606250.991.54113769531,-0.213623046875,0.282287597656
1534606250.991.38854980469,-0.190734863281,0.152587890625
1534606250.991.48773193359,-0.0534057617188,-0.0152587890625
1534606250.991.3427734375,-0.381469726562,0.190734863281
1534606250.991.50299072266,-0.396728515625,0.190734863281
1534606250.991.63269042969,-0.1220703125,0.198364257812
1534606250.991.59454345703,-0.18310546875,-0.0457763671875
1534606251.01.57165527344,-0.274658203125,-0.167846679688
1534606251.01.54113769531,-0.282287597656,0.00762939453125
1534606251.01.41143798828,-0.221252441406,0.106811523438
1534606251.01.36566162109,-0.167846679688,-0.251770019531
1534606251.01.41906738281,-0.30517578125,-0.167846679688
1534606251.01.78527832031,-0.0762939453125,0.0534057617188
1534606251.01.44195556641,0.587463378906,-0.282287597656
1534606251.011.51062011719,0.534057617188,-0.48828125
1534606251.011.66320800781,0.350952148438,-0.190734863281
1534606251.011.17492675781,0.358581542969,-0.442504882812
1534606251.011.51824951172,0.762939453125,-0.350952148438
1534606251.011.48773193359,0.808715820312,-0.480651855469
1534606251.021.36566162109,0.595092773438,-0.595092773438
1534606251.021.64794921875,0.709533691406,-0.6103515625
1534606251.021.55639648438,0.877380371094,-0.473022460938
1534606251.021.48010253906,1.02233886719,-0.30517578125
1534606251.021.48773193359,1.38854980469,-0.465393066406
1534606251.021.66320800781,1.55639648438,-0.656127929688
1534606251.021.61743164062,1.20544433594,-0.54931640625
1534606251.031.54113769531,0.885009765625,-0.564575195312
1534606251.031.48773193359,1.12915039062,-0.770568847656
1534606251.031.62506103516,1.06048583984,-0.770568847656
1534606251.031.708984375,1.12915039062,-0.709533691406
1534606251.031.50299072266,0.946044921875,-0.816345214844
1534606251.031.53350830078,0.930786132812,-0.717163085938
1534606251.031.80816650391,0.999450683594,-0.717163085938
1534606251.041.28936767578,0.938415527344,-0.579833984375
1534606251.041.60217285156,0.831604003906,-0.396728515625
1534606251.041.63269042969,0.633239746094,-0.526428222656
1534606251.041.64031982422,0.846862792969,-0.511169433594
1534606251.041.69372558594,0.778198242188,-0.358581542969
1534606251.051.53350830078,0.846862792969,-0.259399414062
1534606251.051.64794921875,0.79345703125,-0.389099121094
1534606251.051.8310546875,0.770568847656,-0.358581542969
1534606251.051.39617919922,0.8544921875,-0.465393066406
1534606251.061.48010253906,0.686645507812,-0.320434570312
1534606251.061.65557861328,0.625610351562,-0.18310546875
1534606251.061.66320800781,0.717163085938,-0.411987304688
1534606251.061.54113769531,0.724792480469,-0.358581542969
1534606251.061.53350830078,0.823974609375,-0.244140625
1534606251.061.66320800781,0.434875488281,-0.350952148438
1534606251.061.69372558594,0.511169433594,-0.259399414062
1534606251.071.64031982422,0.564575195312,-0.312805175781
1534606251.071.63269042969,0.556945800781,0.00762939453125
1534606251.071.79290771484,0.579833984375,-0.106811523438
1534606251.071.708984375,0.381469726562,-0.579833984375
1534606251.071.69372558594,0.480651855469,-0.717163085938
1534606251.071.46484375,0.473022460938,-0.350952148438
1534606251.071.32751464844,0.518798828125,-0.228881835938
1534606251.081.46484375,0.541687011719,-0.396728515625
1534606251.081.57165527344,0.411987304688,-0.503540039062
1534606251.081.67083740234,0.404357910156,-0.328063964844
1534606251.081.64794921875,0.6103515625,-0.274658203125
1534606251.081.65557861328,0.79345703125,-0.373840332031
1534606251.081.52587890625,0.747680664062,-0.350952148438
1534606251.081.46484375,0.595092773438,-0.473022460938
1534606251.091.69372558594,0.419616699219,-0.404357910156
1534606251.091.54113769531,0.526428222656,-0.335693359375
1534606251.091.60217285156,0.564575195312,-0.42724609375
1534606251.091.64031982422,0.411987304688,-0.152587890625
1534606251.091.67846679688,0.48828125,-0.175476074219
1534606251.091.52587890625,0.503540039062,-0.328063964844
1534606251.11.57165527344,0.801086425781,-0.267028808594
1534606251.11.42669677734,0.625610351562,-0.343322753906
1534606251.11.37329101562,0.6103515625,-0.434875488281
1534606251.11.76239013672,0.289916992188,-0.167846679688
1534606251.11.51824951172,0.434875488281,-0.274658203125
1534606251.11.55639648438,0.564575195312,-0.267028808594
1534606251.111.59454345703,0.511169433594,-0.274658203125
1534606251.111.31225585938,0.495910644531,-0.213623046875
1534606251.111.52587890625,0.42724609375,-0.343322753906
1534606251.111.62506103516,0.3662109375,-0.556945800781
1534606251.121.67846679688,0.526428222656,-0.244140625
1534606251.121.38092041016,0.473022460938,-0.526428222656
1534606251.121.72424316406,0.640869140625,-0.312805175781
1534606251.121.80816650391,0.633239746094,-0.541687011719
1534606251.121.38092041016,0.701904296875,-0.289916992188
1534606251.121.73187255859,0.823974609375,-0.465393066406
1534606251.131.51062011719,0.839233398438,-0.503540039062
1534606251.131.47247314453,0.740051269531,-0.434875488281
1534606251.131.40380859375,0.968933105469,-0.328063964844
1534606251.131.43432617188,1.01470947266,-0.190734863281
1534606251.131.54113769531,0.747680664062,-0.381469726562
1534606251.131.60980224609,0.648498535156,-0.67138671875
1534606251.131.57165527344,0.900268554688,-0.732421875
1534606251.141.57165527344,0.656127929688,-0.6103515625
1534606251.141.51062011719,0.740051269531,-0.579833984375
1534606251.141.41143798828,0.572204589844,-0.373840332031
1534606251.141.41906738281,0.785827636719,-0.587463378906
1534606251.141.57928466797,0.595092773438,-0.473022460938
1534606251.151.67083740234,0.694274902344,-0.396728515625
1534606251.151.57928466797,0.740051269531,-0.236511230469
1534606251.151.61743164062,0.534057617188,-0.404357910156
1534606251.151.39617919922,0.450134277344,-0.381469726562
1534606251.151.57928466797,0.54931640625,-0.0839233398438
1534606251.151.48010253906,0.457763671875,-0.465393066406
1534606251.161.31225585938,0.328063964844,-0.434875488281
1534606251.161.59454345703,0.434875488281,-0.18310546875
1534606251.161.47247314453,0.434875488281,-0.129699707031
1534606251.161.66320800781,0.267028808594,-0.0839233398438
1534606251.161.43432617188,0.205993652344,-0.129699707031
1534606251.171.46484375,0.0991821289062,-0.0839233398438
1534606251.171.99890136719,0.358581542969,-0.244140625
1534606251.171.83868408203,0.411987304688,-0.335693359375
1534606251.171.42669677734,0.419616699219,-0.198364257812
1534606251.171.59454345703,0.541687011719,-0.213623046875
1534606251.171.73187255859,0.343322753906,-0.289916992188
1534606251.181.39617919922,0.518798828125,-0.160217285156
1534606251.181.19018554688,0.465393066406,-0.251770019531
1534606251.181.54113769531,0.411987304688,-0.175476074219
1534606251.181.75476074219,0.312805175781,-0.526428222656
1534606251.181.61743164062,0.244140625,-0.282287597656
1534606251.181.65557861328,0.282287597656,-0.091552734375
1534606251.191.60980224609,0.457763671875,-0.457763671875
1534606251.191.64794921875,0.373840332031,-0.411987304688
1534606251.21.65557861328,0.961303710938,-0.740051269531
1534606251.21.89208984375,0.938415527344,-0.701904296875
1534606251.21.71661376953,0.9765625,-0.823974609375
1534606251.21.38092041016,0.846862792969,-0.770568847656
1534606251.21.3427734375,0.991821289062,-0.778198242188
1534606251.21.51824951172,0.991821289062,-0.679016113281
1534606251.21.5869140625,1.15203857422,-0.495910644531
1534606251.21.44195556641,0.770568847656,-0.778198242188
1534606251.211.48010253906,0.640869140625,-0.556945800781
1534606251.211.63269042969,0.846862792969,-0.724792480469
1534606251.211.60217285156,0.900268554688,-0.640869140625
1534606251.211.46484375,0.816345214844,-0.602722167969
1534606251.211.67083740234,0.869750976562,-0.572204589844
1534606251.211.73950195312,0.877380371094,-0.694274902344
1534606251.211.41143798828,0.907897949219,-0.526428222656
1534606251.221.31225585938,1.09100341797,-0.42724609375
1534606251.221.68609619141,1.11389160156,-0.602722167969
1534606251.221.80816650391,1.08337402344,-0.579833984375
1534606251.221.69372558594,0.839233398438,-0.274658203125
1534606251.221.49536132812,0.656127929688,-0.335693359375
1534606251.221.45721435547,0.762939453125,-0.350952148438
1534606251.221.5869140625,0.564575195312,-0.320434570312
1534606251.231.57928466797,0.389099121094,-0.297546386719
1534606251.231.35040283203,0.213623046875,-0.221252441406
1534606251.231.38092041016,0.114440917969,-0.312805175781
1534606251.231.42669677734,0.297546386719,-0.221252441406
1534606251.231.35040283203,0.0839233398438,-0.30517578125
1534606251.231.19781494141,0.137329101562,-0.328063964844
1534606251.241.64031982422,0.289916992188,-0.244140625
1534606251.241.79290771484,0.205993652344,-0.350952148438
1534606251.241.51062011719,0.434875488281,-0.205993652344
1534606251.241.38854980469,0.556945800781,-0.236511230469
1534606251.241.60217285156,0.389099121094,-0.167846679688
1534606251.241.54113769531,0.236511230469,0.0839233398438
1534606251.251.72424316406,0.450134277344,-0.244140625
1534606251.251.33514404297,0.457763671875,-0.06103515625
1534606251.251.57165527344,0.282287597656,-0.0381469726562
1534606251.251.56402587891,0.48828125,-0.343322753906
1534606251.251.51824951172,0.381469726562,-0.175476074219
1534606251.251.41906738281,0.572204589844,-0.473022460938
1534606251.261.67846679688,0.389099121094,-0.381469726562
1534606251.261.57165527344,0.541687011719,-0.495910644531
1534606251.261.51824951172,0.556945800781,-0.564575195312
1534606251.261.80816650391,0.518798828125,-0.320434570312
1534606251.261.76239013672,0.648498535156,-0.30517578125
1534606251.261.52587890625,0.663757324219,-0.328063964844
1534606251.271.51062011719,0.709533691406,-0.473022460938
1534606251.271.59454345703,0.419616699219,-0.633239746094
1534606251.271.32751464844,0.495910644531,-0.343322753906
1534606251.271.77001953125,0.67138671875,-0.6103515625
1534606251.271.68609619141,0.808715820312,-0.640869140625
1534606251.281.67083740234,1.02996826172,-0.595092773438
1534606251.281.63269042969,1.11389160156,-0.526428222656
1534606251.281.39617919922,0.839233398438,-0.526428222656
1534606251.281.37329101562,0.968933105469,-0.450134277344
1534606251.281.77001953125,0.816345214844,-0.381469726562
1534606251.281.44195556641,0.595092773438,-0.534057617188
1534606251.291.41906738281,0.564575195312,-0.541687011719
1534606251.291.74713134766,0.694274902344,-0.541687011719
1534606251.291.708984375,0.541687011719,-0.587463378906
1534606251.291.57165527344,0.465393066406,-0.411987304688
1534606251.291.5869140625,0.740051269531,-0.244140625
1534606251.291.67083740234,0.67138671875,-0.175476074219
1534606251.31.30462646484,0.511169433594,-0.259399414062
1534606251.31.73187255859,0.381469726562,-0.48828125
1534606251.31.44195556641,0.587463378906,-0.312805175781
1534606251.31.53350830078,0.541687011719,-0.160217285156
1534606251.31.54876708984,0.442504882812,-0.350952148438
1534606251.31.44958496094,0.373840332031,-0.228881835938
1534606251.311.54876708984,0.198364257812,-0.312805175781
1534606251.311.44958496094,0.289916992188,-0.534057617188
1534606251.311.54876708984,0.526428222656,-0.534057617188
1534606251.311.66320800781,0.267028808594,-0.289916992188
1534606251.311.57928466797,0.656127929688,-0.404357910156
1534606251.321.59454345703,0.587463378906,-0.267028808594
1534606251.321.48010253906,0.541687011719,-0.679016113281
1534606251.321.66320800781,0.732421875,-0.3662109375
1534606251.321.65557861328,0.640869140625,-0.404357910156
1534606251.321.54113769531,0.686645507812,-0.434875488281
1534606251.321.51824951172,0.755310058594,-0.312805175781
1534606251.331.35803222656,0.755310058594,-0.312805175781
1534606251.331.48010253906,0.572204589844,-0.228881835938
1534606251.331.64031982422,0.625610351562,-0.221252441406
1534606251.331.67083740234,0.984191894531,-0.312805175781
1534606251.331.57928466797,0.740051269531,-0.511169433594
1534606251.331.45721435547,0.511169433594,-0.450134277344
1534606251.331.48010253906,0.602722167969,-0.564575195312
1534606251.341.52587890625,0.961303710938,-0.503540039062
1534606251.341.54876708984,0.6103515625,-0.465393066406
1534606251.341.64031982422,0.740051269531,-0.419616699219
1534606251.341.65557861328,0.534057617188,-0.679016113281
1534606251.351.60217285156,0.480651855469,-0.450134277344
1534606251.351.63269042969,0.564575195312,-0.3662109375
1534606251.351.49536132812,0.389099121094,-0.06103515625
1534606251.351.28173828125,0.160217285156,-0.228881835938
1534606251.361.65557861328,0.30517578125,-0.205993652344
1534606251.361.69372558594,0.473022460938,-0.114440917969
1534606251.361.31988525391,0.3662109375,-0.106811523438
1534606251.361.45721435547,0.434875488281,-0.282287597656
1534606251.361.38854980469,0.617980957031,-0.282287597656
1534606251.361.43432617188,0.411987304688,-0.312805175781
1534606251.361.70135498047,0.419616699219,-0.129699707031
1534606251.371.44195556641,0.244140625,-0.251770019531
1534606251.371.39617919922,0.358581542969,-0.312805175781
1534606251.371.5869140625,0.473022460938,-0.251770019531
1534606251.371.57928466797,0.419616699219,-0.328063964844
1534606251.371.31988525391,0.541687011719,-0.282287597656
1534606251.371.5869140625,0.633239746094,-0.221252441406
1534606251.371.51824951172,0.572204589844,-0.473022460938
1534606251.371.65557861328,0.564575195312,-0.289916992188
1534606251.381.67846679688,0.846862792969,-0.396728515625
1534606251.381.57928466797,0.877380371094,-0.633239746094
1534606251.381.41143798828,0.808715820312,-0.617980957031
1534606251.381.51824951172,0.831604003906,-0.701904296875
1534606251.381.51062011719,0.656127929688,-0.6103515625
1534606251.381.45721435547,0.968933105469,-0.503540039062
1534606251.381.55639648438,1.13677978516,-0.579833984375
1534606251.391.80816650391,1.12152099609,-0.762939453125
1534606251.391.77001953125,0.961303710938,-0.442504882812
1534606251.391.59454345703,0.991821289062,-0.6103515625
1534606251.391.51824951172,0.991821289062,-1.07574462891
1534606251.391.64794921875,1.24359130859,-0.694274902344
1534606251.391.54113769531,1.20544433594,-0.503540039062
1534606251.391.39617919922,1.35040283203,-0.6103515625
1534606251.41.38092041016,0.999450683594,-0.717163085938
1534606251.41.3427734375,1.09100341797,-0.617980957031
1534606251.41.49536132812,1.20544433594,-0.457763671875
1534606251.41.66320800781,0.732421875,-0.717163085938
1534606251.41.50299072266,0.640869140625,-0.541687011719
1534606251.411.54876708984,0.617980957031,-0.411987304688
1534606251.411.53350830078,0.274658203125,-0.190734863281
1534606251.411.62506103516,0.320434570312,-0.495910644531
1534606251.411.61743164062,0.267028808594,-0.175476074219
1534606251.411.67083740234,0.335693359375,-0.030517578125
1534606251.411.44195556641,-0.175476074219,-0.0534057617188
1534606251.421.50299072266,-0.0381469726562,-0.0534057617188
1534606251.421.52587890625,-0.1220703125,-0.030517578125
1534606251.421.61743164062,0.129699707031,0.274658203125
1534606251.421.66320800781,0.167846679688,0.236511230469
1534606251.421.46484375,0.0381469726562,0.1220703125
1534606251.421.49536132812,0.06103515625,0.396728515625
1534606251.421.53350830078,0.00762939453125,0.267028808594
1534606251.431.33514404297,0.0,0.129699707031
1534606251.431.60980224609,-0.0991821289062,0.320434570312
1534606251.431.33514404297,0.236511230469,0.198364257812
1534606251.431.55639648438,-0.0762939453125,0.0534057617188
1534606251.431.48010253906,-0.167846679688,-0.0991821289062
1534606251.441.38854980469,0.213623046875,0.0991821289062
1534606251.441.37329101562,0.114440917969,0.0228881835938
1534606251.441.64794921875,0.389099121094,-0.282287597656
1534606251.441.5869140625,0.518798828125,-0.335693359375
1534606251.441.56402587891,0.534057617188,-0.511169433594
1534606251.451.68609619141,0.686645507812,-0.617980957031
1534606251.451.38092041016,1.00708007812,-0.862121582031
1534606251.451.38092041016,1.0986328125,-0.6103515625
1534606251.451.72424316406,1.13677978516,-0.701904296875
1534606251.451.64031982422,1.23596191406,-0.892639160156
1534606251.461.53350830078,1.25122070312,-0.816345214844
1534606251.461.53350830078,1.54876708984,-0.526428222656
1534606251.461.67846679688,1.3427734375,-0.79345703125
1534606251.461.84631347656,1.37329101562,-0.801086425781
1534606251.461.68609619141,1.21307373047,-0.831604003906
1534606251.461.62506103516,1.36566162109,-0.755310058594
1534606251.461.54876708984,1.30462646484,-0.686645507812
1534606251.461.55639648438,1.35040283203,-0.686645507812
1534606251.471.42669677734,1.06811523438,-0.961303710938
1534606251.471.52587890625,0.762939453125,-0.991821289062
1534606251.471.64031982422,1.12915039062,-0.892639160156
1534606251.471.38854980469,1.41143798828,-0.54931640625
1534606251.471.61743164062,1.30462646484,-0.679016113281
1534606251.471.77764892578,1.07574462891,-0.617980957031
1534606251.471.48773193359,0.79345703125,-0.541687011719
1534606251.481.31225585938,0.846862792969,-0.526428222656
1534606251.481.48010253906,0.579833984375,-0.465393066406
1534606251.481.59454345703,0.198364257812,-0.465393066406
1534606251.481.66320800781,0.129699707031,-0.511169433594
1534606251.481.48010253906,0.320434570312,0.00762939453125
1534606251.481.44195556641,0.343322753906,-0.297546386719
1534606251.491.63269042969,0.251770019531,-0.328063964844
1534606251.491.51062011719,0.0534057617188,-0.205993652344
1534606251.491.50299072266,0.106811523438,0.144958496094
1534606251.51.69372558594,0.152587890625,0.114440917969
1534606251.51.44958496094,0.358581542969,0.00762939453125
1534606251.51.54113769531,0.144958496094,-0.1220703125
1534606251.51.59454345703,0.0381469726562,-0.259399414062
1534606251.51.52587890625,0.0457763671875,-0.18310546875
1534606251.51.5869140625,0.343322753906,0.0457763671875
1534606251.51.65557861328,0.137329101562,0.1220703125
1534606251.511.64794921875,0.152587890625,-0.114440917969
1534606251.511.57928466797,0.518798828125,-0.282287597656
1534606251.511.37329101562,0.518798828125,-0.190734863281
1534606251.511.5869140625,0.48828125,-0.198364257812
1534606251.511.60217285156,0.480651855469,-0.343322753906
1534606251.511.71661376953,0.320434570312,-0.419616699219
1534606251.511.77764892578,0.328063964844,-0.473022460938
1534606251.521.38092041016,0.358581542969,-0.42724609375
1534606251.521.26647949219,0.572204589844,-0.54931640625
1534606251.521.36566162109,0.823974609375,-0.450134277344
1534606251.521.63269042969,0.907897949219,-0.42724609375
1534606251.521.55639648438,0.701904296875,-0.381469726562
1534606251.521.51824951172,0.808715820312,-0.79345703125
1534606251.521.51824951172,0.564575195312,-0.808715820312
1534606251.531.57928466797,0.846862792969,-0.411987304688
1534606251.531.59454345703,1.06048583984,-0.556945800781
1534606251.531.51062011719,1.06048583984,-0.663757324219
1534606251.531.52587890625,0.999450683594,-0.648498535156
1534606251.531.49536132812,0.862121582031,-0.3662109375
1534606251.531.46484375,0.946044921875,-0.633239746094
1534606251.531.38092041016,1.11389160156,-0.694274902344
1534606251.541.5869140625,1.06048583984,-0.648498535156
1534606251.541.28936767578,0.91552734375,-0.503540039062
1534606251.541.66320800781,0.808715820312,-0.442504882812
1534606251.541.56402587891,0.740051269531,-0.625610351562
1534606251.541.60217285156,0.831604003906,-0.396728515625
1534606251.551.82342529297,0.663757324219,-0.450134277344
1534606251.551.49536132812,0.625610351562,-0.556945800781
1534606251.551.36566162109,0.846862792969,-0.244140625
1534606251.551.38854980469,0.747680664062,-0.503540039062
1534606251.551.54876708984,0.602722167969,-0.328063964844
1534606251.551.50299072266,0.419616699219,-0.3662109375
1534606251.561.66320800781,0.556945800781,-0.579833984375
1534606251.561.56402587891,0.595092773438,-0.205993652344
1534606251.561.5869140625,0.679016113281,-0.434875488281
1534606251.561.64031982422,0.656127929688,-0.274658203125
1534606251.561.52587890625,0.579833984375,-0.358581542969
1534606251.571.39617919922,0.534057617188,-0.343322753906
1534606251.571.67083740234,0.442504882812,-0.411987304688
1534606251.571.93023681641,0.511169433594,-0.198364257812
1534606251.571.31988525391,0.900268554688,-0.175476074219
1534606251.571.52587890625,0.587463378906,-0.648498535156
1534606251.581.60980224609,0.587463378906,-0.419616699219
1534606251.581.56402587891,0.556945800781,-0.228881835938
1534606251.581.51062011719,0.67138671875,-0.411987304688
1534606251.581.37329101562,0.579833984375,-0.442504882812
1534606251.581.48010253906,0.755310058594,-0.404357910156
1534606251.581.53350830078,0.709533691406,-0.473022460938
1534606251.591.48010253906,0.6103515625,-0.572204589844
1534606251.591.53350830078,0.694274902344,-0.411987304688
1534606251.591.16729736328,0.6103515625,-0.297546386719
1534606251.591.42669677734,0.480651855469,-0.701904296875
1534606251.591.60980224609,0.282287597656,-0.762939453125
1534606251.591.73950195312,0.67138671875,-0.404357910156
1534606251.591.3427734375,0.617980957031,-0.259399414062
1534606251.591.37329101562,0.465393066406,-0.465393066406
1534606251.61.39617919922,0.518798828125,-0.190734863281
1534606251.61.53350830078,0.442504882812,-0.06103515625
1534606251.61.55639648438,0.54931640625,-0.267028808594
1534606251.61.51062011719,0.526428222656,-0.114440917969
1534606251.61.60980224609,0.6103515625,-0.0839233398438
1534606251.61.60217285156,0.335693359375,-0.503540039062
1534606251.611.5869140625,0.389099121094,-0.42724609375
1534606251.611.8310546875,0.79345703125,-0.411987304688
1534606251.611.64031982422,0.457763671875,-0.106811523438
1534606251.611.37329101562,0.335693359375,-0.152587890625
1534606251.611.42669677734,0.480651855469,-0.251770019531
1534606251.611.40380859375,0.190734863281,-0.228881835938
1534606251.621.71661376953,0.79345703125,-0.221252441406
1534606251.621.64031982422,0.694274902344,-0.350952148438
1534606251.621.51824951172,0.564575195312,-0.350952148438
1534606251.621.54113769531,0.48828125,-0.320434570312
1534606251.621.56402587891,0.419616699219,-0.175476074219
1534606251.621.67846679688,0.831604003906,-0.587463378906
1534606251.631.51824951172,0.67138671875,-0.411987304688
1534606251.631.45721435547,0.221252441406,-0.30517578125
1534606251.631.38854980469,0.328063964844,-0.18310546875
1534606251.631.65557861328,0.953674316406,-0.434875488281
1534606251.631.42669677734,0.862121582031,-0.3662109375
1534606251.631.38854980469,0.694274902344,-0.701904296875
1534606251.641.56402587891,0.724792480469,-0.404357910156
1534606251.641.67846679688,0.869750976562,-0.534057617188
1534606251.651.46484375,0.709533691406,-0.473022460938
1534606251.651.48010253906,0.663757324219,-0.724792480469
1534606251.651.37329101562,0.938415527344,-0.724792480469
1534606251.651.51062011719,0.839233398438,-0.267028808594
1534606251.651.70135498047,0.54931640625,-0.358581542969
1534606251.651.57928466797,0.579833984375,-0.282287597656
1534606251.661.61743164062,0.885009765625,-0.572204589844
1534606251.661.41906738281,0.953674316406,-0.48828125
1534606251.661.51062011719,0.724792480469,-0.404357910156
1534606251.661.64031982422,0.541687011719,-0.717163085938
1534606251.661.66320800781,0.595092773438,-0.595092773438
1534606251.661.5869140625,0.770568847656,-0.572204589844
1534606251.661.60980224609,0.679016113281,-0.54931640625
1534606251.661.53350830078,0.648498535156,-0.335693359375
1534606251.671.65557861328,0.419616699219,-0.396728515625
1534606251.671.75476074219,0.434875488281,-0.465393066406
1534606251.671.60980224609,0.419616699219,-0.18310546875
1534606251.671.70135498047,0.587463378906,-0.30517578125
1534606251.671.44195556641,0.289916992188,-0.312805175781
1534606251.671.32751464844,0.160217285156,-0.48828125
1534606251.681.32751464844,0.625610351562,-0.541687011719
1534606251.681.52587890625,0.526428222656,-0.190734863281
1534606251.681.57165527344,0.473022460938,-0.0839233398438
1534606251.681.66320800781,0.564575195312,-0.129699707031
1534606251.681.51824951172,0.495910644531,-0.404357910156
1534606251.681.47247314453,0.373840332031,-0.457763671875
1534606251.681.41143798828,0.335693359375,-0.381469726562
1534606251.691.46484375,0.503540039062,-0.236511230469
1534606251.691.60980224609,0.801086425781,-0.350952148438
1534606251.691.68609619141,0.518798828125,-0.3662109375
1534606251.691.59454345703,0.79345703125,-0.30517578125
1534606251.691.57165527344,0.679016113281,-0.465393066406
1534606251.691.49536132812,0.534057617188,-0.579833984375
1534606251.71.38092041016,0.846862792969,-0.587463378906
1534606251.71.48010253906,0.518798828125,-0.518798828125
1534606251.71.84631347656,0.526428222656,-0.511169433594
1534606251.71.87683105469,0.762939453125,-0.419616699219
1534606251.71.37329101562,0.663757324219,-0.373840332031
1534606251.71.51824951172,0.808715820312,-0.579833984375
1534606251.711.56402587891,1.04522705078,-0.534057617188
1534606251.711.45721435547,0.633239746094,-0.442504882812
1534606251.711.35040283203,0.740051269531,-0.595092773438
1534606251.711.40380859375,0.938415527344,-0.679016113281
1534606251.711.708984375,0.823974609375,-0.701904296875
1534606251.721.40380859375,0.839233398438,-0.709533691406
1534606251.721.48773193359,0.709533691406,-0.694274902344
1534606251.721.49536132812,0.587463378906,-0.518798828125
1534606251.721.57165527344,0.686645507812,-0.442504882812
1534606251.721.57928466797,0.633239746094,-0.335693359375
1534606251.731.54876708984,0.839233398438,-0.587463378906
1534606251.731.59454345703,0.617980957031,-0.160217285156
1534606251.731.73950195312,0.297546386719,-0.442504882812
1534606251.731.76239013672,0.625610351562,-0.3662109375
1534606251.731.51062011719,0.625610351562,-0.419616699219
1534606251.731.41906738281,0.350952148438,-0.48828125
1534606251.741.44958496094,0.595092773438,-0.343322753906
1534606251.741.49536132812,0.3662109375,-0.389099121094
1534606251.741.45721435547,0.625610351562,-0.42724609375
1534606251.741.41906738281,0.434875488281,-0.350952148438
1534606251.741.75476074219,0.320434570312,-0.0839233398438
1534606251.741.52587890625,0.221252441406,-0.175476074219
1534606251.751.56402587891,0.289916992188,-0.343322753906
1534606251.751.56402587891,0.6103515625,-0.358581542969
1534606251.751.57165527344,0.404357910156,-0.274658203125
1534606251.751.57165527344,0.259399414062,-0.1220703125
1534606251.751.56402587891,0.541687011719,-0.274658203125
1534606251.751.60217285156,0.640869140625,-0.404357910156
1534606251.751.61743164062,0.381469726562,-0.0991821289062
1534606251.761.57928466797,0.30517578125,-0.175476074219
1534606251.761.49536132812,0.328063964844,-0.556945800781
1534606251.761.73187255859,0.404357910156,-0.541687011719
1534606251.761.68609619141,0.648498535156,-0.312805175781
1534606251.761.67846679688,0.633239746094,-0.358581542969
1534606251.761.51824951172,0.6103515625,-0.328063964844
1534606251.761.57165527344,0.457763671875,-0.282287597656
1534606251.771.47247314453,0.701904296875,-0.320434570312
1534606251.771.8310546875,0.473022460938,-0.198364257812
1534606251.771.64794921875,0.656127929688,-0.312805175781
1534606251.771.61743164062,0.282287597656,-0.42724609375
1534606251.781.54113769531,0.457763671875,-0.358581542969
1534606251.781.73950195312,0.648498535156,-0.6103515625
1534606251.781.44958496094,0.6103515625,-0.358581542969
1534606251.791.40380859375,0.778198242188,-0.335693359375
1534606251.791.38092041016,0.900268554688,-0.350952148438
1534606251.791.37329101562,0.762939453125,-0.48828125
1534606251.791.51824951172,0.3662109375,-0.541687011719
1534606251.791.72424316406,0.518798828125,-0.495910644531
1534606251.791.67846679688,0.54931640625,-0.396728515625
1534606251.791.49536132812,0.30517578125,-0.221252441406
1534606251.81.37329101562,0.579833984375,-0.282287597656
1534606251.81.5869140625,0.785827636719,-0.373840332031
1534606251.81.68609619141,0.877380371094,-0.335693359375
1534606251.81.49536132812,0.808715820312,-0.267028808594
1534606251.81.41906738281,0.694274902344,-0.289916992188
1534606251.81.42669677734,0.724792480469,-0.526428222656
1534606251.81.51062011719,0.808715820312,-0.465393066406
1534606251.811.31988525391,0.679016113281,-0.274658203125
1534606251.811.57928466797,0.579833984375,-0.564575195312
1534606251.811.54876708984,0.48828125,-0.534057617188
1534606251.811.46484375,0.518798828125,-0.648498535156
1534606251.811.41906738281,0.740051269531,-0.389099121094
1534606251.811.42669677734,0.816345214844,-0.381469726562
1534606251.811.37329101562,0.404357910156,-0.511169433594
1534606251.821.64031982422,0.389099121094,-0.381469726562
1534606251.821.8310546875,0.579833984375,-0.42724609375
1534606251.821.50299072266,0.457763671875,-0.267028808594
1534606251.821.54876708984,0.732421875,-0.617980957031
1534606251.821.44958496094,0.595092773438,-0.54931640625
1534606251.821.5869140625,0.709533691406,-0.762939453125
1534606251.831.59454345703,0.656127929688,-0.663757324219
1534606251.831.25122070312,0.67138671875,-0.54931640625
1534606251.831.35803222656,0.656127929688,-0.450134277344
1534606251.831.53350830078,1.01470947266,-0.282287597656
1534606251.831.50299072266,0.6103515625,-0.526428222656
1534606251.831.67083740234,0.480651855469,-0.518798828125
1534606251.841.56402587891,0.6103515625,-0.450134277344
1534606251.841.44958496094,0.67138671875,-0.54931640625
1534606251.841.41906738281,0.526428222656,-0.328063964844
1534606251.841.38092041016,0.350952148438,-0.213623046875
1534606251.841.50299072266,0.526428222656,-0.282287597656
1534606251.851.28936767578,0.282287597656,-0.396728515625
1534606251.851.27410888672,0.541687011719,-0.152587890625
1534606251.851.69372558594,0.495910644531,-0.30517578125
1534606251.851.44195556641,0.350952148438,-0.54931640625
1534606251.851.62506103516,0.503540039062,-0.198364257812
1534606251.861.38854980469,0.251770019531,-0.503540039062
1534606251.861.44195556641,0.205993652344,-0.221252441406
1534606251.861.46484375,0.42724609375,-0.1220703125
1534606251.861.37329101562,0.251770019531,-0.289916992188
1534606251.861.54113769531,0.663757324219,-0.320434570312
1534606251.871.19018554688,0.350952148438,-0.335693359375
1534606251.871.45721435547,0.320434570312,-0.198364257812
1534606251.871.64031982422,0.320434570312,-0.198364257812
1534606251.871.22833251953,0.358581542969,-0.30517578125
1534606251.871.50299072266,0.740051269531,-0.48828125
1534606251.871.56402587891,0.534057617188,-0.526428222656
1534606251.881.67083740234,0.526428222656,-0.572204589844
1534606251.881.43432617188,0.556945800781,-0.465393066406
1534606251.881.35040283203,0.6103515625,-0.289916992188
1534606251.881.71661376953,0.679016113281,-0.350952148438
1534606251.881.69372558594,1.02233886719,-0.442504882812
1534606251.891.77764892578,0.602722167969,-0.526428222656
1534606251.891.81579589844,0.503540039062,-0.587463378906
1534606251.891.64031982422,0.701904296875,-0.457763671875
1534606251.891.28173828125,0.67138671875,-0.450134277344
1534606251.891.57928466797,0.625610351562,-0.518798828125
1534606251.891.67083740234,0.816345214844,-0.434875488281
1534606251.891.48010253906,0.923156738281,-0.389099121094
1534606251.891.48773193359,0.801086425781,-0.381469726562
1534606251.91.54113769531,0.9765625,-0.48828125
1534606251.91.61743164062,0.717163085938,-0.526428222656
1534606251.91.76239013672,0.595092773438,-0.373840332031
1534606251.91.57165527344,0.709533691406,-0.411987304688
1534606251.91.56402587891,0.984191894531,-0.343322753906
1534606251.91.54876708984,0.869750976562,-0.541687011719
1534606251.911.61743164062,0.541687011719,-0.54931640625
1534606251.911.63269042969,0.740051269531,-0.114440917969
1534606251.911.68609619141,0.648498535156,-0.30517578125
1534606251.911.76239013672,0.656127929688,-0.48828125
1534606251.911.44958496094,0.297546386719,-0.396728515625
1534606251.911.35040283203,0.541687011719,-0.465393066406
1534606251.921.63269042969,0.724792480469,-0.503540039062
1534606251.921.50299072266,0.434875488281,-0.419616699219
1534606251.921.68609619141,0.518798828125,-0.442504882812
1534606251.921.50299072266,0.640869140625,-0.526428222656
1534606251.931.41906738281,0.473022460938,-0.442504882812
1534606251.931.61743164062,0.526428222656,-0.205993652344
1534606251.941.35803222656,0.54931640625,-0.175476074219
1534606251.941.44195556641,0.42724609375,-0.434875488281
1534606251.941.79290771484,0.328063964844,-0.396728515625
1534606251.941.66320800781,0.511169433594,-0.289916992188
1534606251.941.38092041016,0.511169433594,-0.480651855469
1534606251.941.35040283203,0.526428222656,-0.373840332031
1534606251.941.708984375,0.648498535156,-0.480651855469
1534606251.951.60217285156,0.633239746094,-0.419616699219
1534606251.951.60980224609,0.625610351562,-0.419616699219
1534606251.951.43432617188,0.518798828125,-0.373840332031
1534606251.951.5869140625,0.465393066406,-0.30517578125
1534606251.951.46484375,0.503540039062,-0.3662109375
1534606251.951.53350830078,0.717163085938,-0.411987304688
1534606251.951.50299072266,0.785827636719,-0.18310546875
1534606251.961.64031982422,0.930786132812,-0.259399414062
1534606251.961.46484375,0.79345703125,-0.389099121094
1534606251.961.51824951172,0.602722167969,-0.411987304688
1534606251.961.48773193359,0.923156738281,-0.556945800781
1534606251.961.41143798828,0.770568847656,-0.396728515625
1534606251.961.55639648438,0.968933105469,-0.312805175781
1534606251.971.59454345703,0.762939453125,-0.442504882812
1534606251.971.72424316406,0.732421875,-0.564575195312
1534606251.971.54113769531,0.900268554688,-0.473022460938
1534606251.971.3427734375,0.701904296875,-0.404357910156
1534606251.971.49536132812,0.709533691406,-0.762939453125
1534606251.971.53350830078,0.740051269531,-0.694274902344
1534606251.971.54876708984,0.877380371094,-0.411987304688
1534606251.981.70135498047,0.732421875,-0.587463378906
1534606251.981.38854980469,0.656127929688,-0.762939453125
1534606251.981.66320800781,0.579833984375,-0.198364257812
1534606251.981.43432617188,0.633239746094,-0.350952148438
1534606251.981.47247314453,0.473022460938,-0.54931640625
1534606251.991.46484375,0.511169433594,-0.465393066406
1534606251.991.46484375,0.328063964844,-0.389099121094
1534606251.991.708984375,0.617980957031,-0.373840332031
1534606251.991.33514404297,0.778198242188,-0.587463378906
1534606251.991.17492675781,0.534057617188,-0.213623046875
1534606252.01.64794921875,0.503540039062,-0.175476074219
1534606252.01.69372558594,0.411987304688,-0.267028808594
1534606252.01.63269042969,0.808715820312,-0.282287597656
1534606252.01.52587890625,0.686645507812,-0.335693359375
1534606252.01.33514404297,0.251770019531,-0.198364257812
1534606252.01.25122070312,0.419616699219,-0.251770019531
1534606252.011.35803222656,0.663757324219,-0.244140625
1534606252.011.52587890625,0.457763671875,-0.289916992188
1534606252.011.50299072266,0.137329101562,-0.434875488281
1534606252.011.35803222656,0.396728515625,-0.0534057617188
1534606252.011.59454345703,0.617980957031,-0.114440917969
1534606252.011.54113769531,0.3662109375,-0.54931640625
1534606252.021.37329101562,0.556945800781,-0.518798828125
1534606252.021.78527832031,0.755310058594,-0.335693359375
1534606252.021.5869140625,0.6103515625,-0.267028808594
1534606252.021.26647949219,0.518798828125,-0.328063964844
1534606252.021.5869140625,0.67138671875,-0.465393066406
1534606252.031.20544433594,0.732421875,-0.602722167969
1534606252.031.55639648438,0.762939453125,-0.511169433594
1534606252.031.56402587891,0.656127929688,-0.495910644531
1534606252.031.44958496094,0.602722167969,-0.526428222656
1534606252.031.50299072266,0.572204589844,-0.42724609375
1534606252.031.86157226562,0.495910644531,-0.389099121094
1534606252.041.76239013672,0.259399414062,-0.419616699219
1534606252.041.60217285156,0.343322753906,-0.54931640625
1534606252.041.51824951172,0.717163085938,-0.350952148438
1534606252.041.64794921875,0.724792480469,-0.396728515625
1534606252.041.62506103516,0.648498535156,-0.450134277344
1534606252.041.41906738281,0.457763671875,-0.350952148438
1534606252.041.60217285156,0.663757324219,-0.457763671875
1534606252.051.64031982422,0.396728515625,-0.373840332031
1534606252.051.47247314453,0.770568847656,-0.221252441406
1534606252.051.54113769531,0.48828125,-0.198364257812
1534606252.051.70135498047,0.335693359375,-0.42724609375
1534606252.051.40380859375,0.709533691406,-0.572204589844
1534606252.051.48773193359,0.900268554688,-0.442504882812
1534606252.061.54876708984,0.839233398438,-0.404357910156
1534606252.061.70135498047,0.885009765625,-0.572204589844
1534606252.061.52587890625,0.595092773438,-0.450134277344
1534606252.061.55639648438,0.770568847656,-0.740051269531
1534606252.061.31225585938,0.808715820312,-0.640869140625
1534606252.071.59454345703,0.724792480469,-0.350952148438
1534606252.071.66320800781,0.648498535156,-0.251770019531
1534606252.081.54113769531,0.900268554688,-0.381469726562
1534606252.081.708984375,0.869750976562,-0.732421875
1534606252.081.41906738281,0.839233398438,-0.495910644531
1534606252.081.30462646484,0.785827636719,-0.511169433594
1534606252.081.53350830078,0.801086425781,-0.541687011719
1534606252.081.33514404297,0.785827636719,-0.175476074219
1534606252.081.50299072266,0.564575195312,-0.221252441406
1534606252.091.54113769531,0.595092773438,-0.297546386719
1534606252.091.64794921875,0.450134277344,-0.6103515625
1534606252.091.61743164062,0.381469726562,-0.442504882812
1534606252.091.55639648438,0.511169433594,-0.404357910156
1534606252.091.60217285156,0.30517578125,0.0152587890625
1534606252.091.66320800781,0.465393066406,0.114440917969
1534606252.091.41143798828,0.205993652344,-0.0991821289062
1534606252.11.71661376953,0.335693359375,-0.160217285156
1534606252.11.73950195312,0.480651855469,-0.396728515625
1534606252.11.78527832031,0.587463378906,-0.312805175781
1534606252.11.57928466797,0.556945800781,-0.663757324219
1534606252.11.48773193359,0.755310058594,-0.328063964844
1534606252.11.57165527344,0.862121582031,-0.297546386719
1534606252.111.64031982422,0.938415527344,-0.595092773438
1534606252.111.67846679688,0.67138671875,-0.564575195312
1534606252.111.28173828125,0.602722167969,-0.18310546875
1534606252.111.35040283203,0.282287597656,-0.473022460938
1534606252.111.59454345703,0.358581542969,-0.701904296875
1534606252.111.67083740234,0.312805175781,-0.511169433594
1534606252.121.48010253906,0.396728515625,-0.350952148438
1534606252.121.76239013672,0.717163085938,-0.434875488281
1534606252.121.81579589844,0.930786132812,-0.42724609375
1534606252.121.51062011719,0.907897949219,-0.457763671875
1534606252.121.77001953125,0.846862792969,-0.419616699219
1534606252.121.81579589844,1.03759765625,-0.42724609375
1534606252.131.44195556641,0.862121582031,-0.48828125
1534606252.131.55639648438,0.595092773438,-0.152587890625
1534606252.131.84631347656,0.450134277344,-0.572204589844
1534606252.131.57928466797,0.3662109375,-0.465393066406
1534606252.141.30462646484,0.129699707031,-0.503540039062
1534606252.141.5869140625,0.518798828125,-0.640869140625
1534606252.141.67083740234,0.717163085938,-0.350952148438
1534606252.141.50299072266,0.717163085938,-0.48828125
1534606252.141.69372558594,0.991821289062,-0.526428222656
1534606252.141.71661376953,0.587463378906,-0.411987304688
1534606252.151.75476074219,0.564575195312,-0.350952148438
1534606252.151.57928466797,0.79345703125,-0.190734863281
1534606252.151.3427734375,0.778198242188,-0.106811523438
1534606252.151.73950195312,0.556945800781,-0.06103515625
1534606252.151.74713134766,0.770568847656,-0.190734863281
1534606252.161.5869140625,0.389099121094,-0.213623046875
1534606252.161.48773193359,0.236511230469,-0.244140625
1534606252.161.56402587891,0.511169433594,-0.1220703125
1534606252.161.44195556641,0.595092773438,-0.190734863281
1534606252.161.50299072266,0.541687011719,-0.251770019531
1534606252.161.45721435547,0.511169433594,-0.457763671875
1534606252.171.68609619141,0.755310058594,-0.48828125
1534606252.171.61743164062,0.297546386719,-0.228881835938
1534606252.171.33514404297,0.221252441406,-0.343322753906
1534606252.171.42669677734,0.251770019531,-0.282287597656
1534606252.171.44195556641,0.450134277344,-0.274658203125
1534606252.181.53350830078,0.640869140625,-0.419616699219
1534606252.181.51062011719,0.480651855469,-0.289916992188
1534606252.181.65557861328,0.656127929688,-0.434875488281
1534606252.181.48010253906,0.900268554688,-0.434875488281
1534606252.181.74713134766,1.07574462891,-0.419616699219
1534606252.181.48773193359,1.00708007812,-0.602722167969
1534606252.191.67083740234,1.00708007812,-0.465393066406
1534606252.191.73950195312,0.9765625,-0.42724609375
1534606252.191.45721435547,0.755310058594,-0.564575195312
1534606252.191.66320800781,0.778198242188,-0.656127929688
1534606252.191.51824951172,0.801086425781,-0.518798828125
1534606252.191.60980224609,0.747680664062,-0.572204589844
1534606252.191.93023681641,0.556945800781,-0.434875488281
1534606252.21.96075439453,0.411987304688,-0.526428222656
1534606252.21.57928466797,0.465393066406,-0.480651855469
1534606252.21.42669677734,0.709533691406,-0.717163085938
1534606252.21.41906738281,0.91552734375,-0.79345703125
1534606252.21.33514404297,0.846862792969,-0.770568847656
1534606252.21.69372558594,0.999450683594,-0.595092773438
1534606252.21.65557861328,1.27410888672,-0.442504882812
1534606252.211.50299072266,0.91552734375,-0.358581542969
1534606252.211.93786621094,0.633239746094,-0.587463378906
1534606252.211.69372558594,0.808715820312,-0.442504882812
1534606252.211.5869140625,0.79345703125,-0.434875488281
1534606252.211.76239013672,0.831604003906,-0.579833984375
1534606252.221.54876708984,0.511169433594,-0.6103515625
1534606252.221.57928466797,0.679016113281,-0.30517578125
1534606252.221.59454345703,0.724792480469,-0.587463378906
1534606252.231.69372558594,0.907897949219,-0.267028808594
1534606252.231.50299072266,0.518798828125,-0.213623046875
1534606252.231.66320800781,0.3662109375,-0.373840332031
1534606252.231.57165527344,0.358581542969,-0.320434570312
1534606252.231.32751464844,0.534057617188,-0.328063964844
1534606252.231.41906738281,0.595092773438,-0.213623046875
1534606252.231.52587890625,0.167846679688,-0.228881835938
1534606252.241.50299072266,0.106811523438,-0.160217285156
1534606252.241.52587890625,0.06103515625,-0.213623046875
1534606252.241.64031982422,0.328063964844,-0.411987304688
1534606252.241.38092041016,0.564575195312,-0.282287597656
1534606252.241.52587890625,0.312805175781,-0.205993652344
1534606252.241.65557861328,0.0457763671875,-0.289916992188
1534606252.241.65557861328,0.396728515625,-0.274658203125
1534606252.251.67083740234,0.534057617188,-0.358581542969
1534606252.251.52587890625,0.48828125,-0.251770019531
1534606252.251.56402587891,0.350952148438,-0.129699707031
1534606252.251.60980224609,0.495910644531,-0.473022460938
1534606252.251.49536132812,0.526428222656,-0.358581542969
1534606252.251.47247314453,0.518798828125,-0.175476074219
1534606252.251.60980224609,0.625610351562,-0.18310546875
1534606252.261.32751464844,0.679016113281,-0.350952148438
1534606252.261.56402587891,0.534057617188,-0.297546386719
1534606252.261.83868408203,0.785827636719,-0.389099121094
1534606252.261.41906738281,0.541687011719,-0.564575195312
1534606252.261.46484375,0.762939453125,-0.282287597656
1534606252.261.69372558594,0.686645507812,-0.114440917969
1534606252.261.71661376953,0.885009765625,-0.534057617188
1534606252.271.68609619141,0.602722167969,-0.404357910156
1534606252.271.60217285156,0.389099121094,-0.3662109375
1534606252.271.69372558594,0.885009765625,-0.640869140625
1534606252.271.42669677734,0.457763671875,-0.190734863281
1534606252.271.77001953125,0.869750976562,-0.6103515625
1534606252.271.64031982422,0.877380371094,-0.358581542969
1534606252.281.46484375,0.564575195312,-0.465393066406
1534606252.281.57165527344,0.701904296875,-0.473022460938
1534606252.281.75476074219,0.755310058594,-0.648498535156
1534606252.281.51062011719,0.656127929688,-0.312805175781
1534606252.281.60980224609,0.473022460938,-0.396728515625
1534606252.291.44958496094,0.801086425781,-0.465393066406
1534606252.291.54876708984,0.534057617188,-0.091552734375
1534606252.291.53350830078,0.511169433594,-0.267028808594
1534606252.291.57165527344,0.778198242188,-0.67138671875
1534606252.291.71661376953,0.587463378906,-0.411987304688
1534606252.31.53350830078,0.907897949219,-0.312805175781
1534606252.31.54876708984,0.694274902344,-0.480651855469
1534606252.31.57928466797,0.579833984375,-0.541687011719
1534606252.31.48773193359,0.617980957031,-0.373840332031
1534606252.31.70135498047,0.663757324219,-0.42724609375
1534606252.31.49536132812,0.823974609375,-0.419616699219
1534606252.311.62506103516,0.572204589844,-0.297546386719
1534606252.311.49536132812,0.572204589844,-0.389099121094
1534606252.311.57165527344,0.755310058594,-0.457763671875
1534606252.311.49536132812,0.709533691406,-0.534057617188
1534606252.311.5869140625,0.846862792969,-0.572204589844
1534606252.311.94549560547,0.518798828125,-0.389099121094
1534606252.321.41906738281,0.434875488281,-0.274658203125
1534606252.321.65557861328,0.579833984375,-0.495910644531
1534606252.321.36566162109,0.587463378906,-0.48828125
1534606252.321.64031982422,0.450134277344,-0.396728515625
1534606252.321.77764892578,0.67138671875,-0.450134277344
1534606252.331.45721435547,0.740051269531,-0.3662109375
1534606252.331.51824951172,0.762939453125,-0.526428222656
1534606252.331.67846679688,0.694274902344,-0.587463378906
1534606252.331.76239013672,0.686645507812,-0.373840332031
1534606252.331.51062011719,0.572204589844,-0.267028808594
1534606252.331.66320800781,0.556945800781,-0.335693359375
1534606252.331.69372558594,0.503540039062,-0.503540039062
1534606252.331.60217285156,0.457763671875,-0.511169433594
1534606252.341.63269042969,0.686645507812,-0.473022460938
1534606252.341.61743164062,0.709533691406,-0.381469726562
1534606252.341.23596191406,0.648498535156,-0.320434570312
1534606252.341.68609619141,0.717163085938,-0.335693359375
1534606252.341.46484375,0.701904296875,-0.221252441406
1534606252.341.29699707031,0.350952148438,-0.18310546875
1534606252.351.60217285156,0.495910644531,-0.3662109375
1534606252.351.67846679688,0.579833984375,-0.30517578125
1534606252.351.44958496094,0.892639160156,-0.137329101562
1534606252.351.39617919922,0.3662109375,-0.167846679688
1534606252.351.77764892578,0.259399414062,-0.221252441406
1534606252.351.35803222656,0.48828125,-0.274658203125
1534606252.361.55639648438,0.465393066406,-0.54931640625
1534606252.361.68609619141,0.373840332031,-0.343322753906
1534606252.371.25122070312,0.518798828125,-0.434875488281
1534606252.371.75476074219,0.755310058594,-0.457763671875
1534606252.371.54113769531,0.762939453125,-0.473022460938
1534606252.371.42669677734,0.869750976562,-0.518798828125
1534606252.371.70135498047,0.839233398438,-0.67138671875
1534606252.371.72424316406,0.785827636719,-0.358581542969
1534606252.381.63269042969,0.885009765625,-0.42724609375
1534606252.381.44958496094,0.572204589844,-0.42724609375
1534606252.381.50299072266,0.244140625,-0.335693359375
1534606252.381.48773193359,0.396728515625,-0.480651855469
1534606252.381.5869140625,0.808715820312,-0.572204589844
1534606252.381.67846679688,0.473022460938,-0.648498535156
1534606252.381.43432617188,0.480651855469,-0.373840332031
1534606252.381.49536132812,0.839233398438,-0.381469726562
1534606252.391.84631347656,0.747680664062,-0.686645507812
1534606252.391.89208984375,0.938415527344,-0.679016113281
1534606252.391.67846679688,0.953674316406,-0.709533691406
1534606252.391.49536132812,1.0986328125,-0.686645507812
1534606252.391.65557861328,0.6103515625,-0.473022460938
1534606252.391.69372558594,0.595092773438,-0.480651855469
1534606252.41.54876708984,0.648498535156,-0.358581542969
1534606252.41.25122070312,0.656127929688,-0.251770019531
1534606252.41.29699707031,0.48828125,-0.358581542969
1534606252.41.47247314453,0.328063964844,-0.389099121094
1534606252.41.52587890625,0.320434570312,-0.457763671875
1534606252.41.63269042969,0.67138671875,-0.358581542969
1534606252.41.67846679688,0.663757324219,-0.389099121094
1534606252.41.54876708984,0.534057617188,-0.556945800781
1534606252.411.61743164062,0.274658203125,-0.381469726562
1534606252.411.67083740234,0.587463378906,-0.289916992188
1534606252.411.26647949219,0.541687011719,-0.419616699219
1534606252.411.41906738281,0.30517578125,-0.358581542969
1534606252.411.73950195312,0.572204589844,-0.282287597656
1534606252.421.41143798828,0.541687011719,-0.282287597656
1534606252.421.25885009766,0.709533691406,-0.320434570312
1534606252.421.55639648438,0.732421875,-0.167846679688
1534606252.421.65557861328,0.518798828125,-0.106811523438
1534606252.421.44958496094,0.480651855469,-0.457763671875
1534606252.421.5869140625,0.511169433594,-0.373840332031
1534606252.431.59454345703,0.534057617188,-0.228881835938
1534606252.431.51824951172,0.648498535156,-0.450134277344
1534606252.431.60980224609,0.648498535156,-0.48828125
1534606252.431.73187255859,0.534057617188,-0.633239746094
1534606252.441.61743164062,0.808715820312,-0.808715820312
1534606252.441.67083740234,0.717163085938,-0.3662109375
1534606252.441.83868408203,0.694274902344,-0.54931640625
1534606252.441.25885009766,0.885009765625,-0.350952148438
1534606252.441.51062011719,0.9765625,-0.534057617188
1534606252.441.72424316406,0.930786132812,-0.656127929688
1534606252.451.74713134766,0.984191894531,-0.411987304688
1534606252.451.57165527344,1.15203857422,-0.389099121094
1534606252.451.48773193359,0.785827636719,-0.686645507812
1534606252.451.62506103516,0.900268554688,-0.6103515625
1534606252.451.67846679688,1.02996826172,-0.526428222656
1534606252.461.48010253906,0.656127929688,-0.42724609375
1534606252.461.63269042969,0.770568847656,-0.518798828125
1534606252.461.20544433594,0.640869140625,-0.541687011719
1534606252.461.40380859375,0.160217285156,-0.381469726562
1534606252.461.43432617188,0.457763671875,-0.320434570312
1534606252.471.60217285156,0.0839233398438,-0.267028808594
1534606252.471.66320800781,0.480651855469,-0.228881835938
1534606252.471.41143798828,0.259399414062,-0.213623046875
1534606252.471.56402587891,0.18310546875,-0.267028808594
1534606252.471.44958496094,0.480651855469,-0.0839233398438
1534606252.471.37329101562,0.404357910156,-0.198364257812
1534606252.481.39617919922,0.190734863281,-0.167846679688
1534606252.481.52587890625,0.152587890625,-0.205993652344
1534606252.481.65557861328,0.457763671875,-0.236511230469
1534606252.481.37329101562,0.442504882812,-0.18310546875
1534606252.481.46484375,0.442504882812,-0.0991821289062
1534606252.481.64031982422,0.167846679688,-0.129699707031
1534606252.491.72424316406,0.289916992188,-0.106811523438
1534606252.491.59454345703,0.358581542969,-0.289916992188
1534606252.491.64031982422,0.457763671875,-0.579833984375
1534606252.491.64794921875,0.625610351562,-0.251770019531
1534606252.491.44195556641,0.839233398438,-0.373840332031
1534606252.491.57928466797,0.679016113281,-0.495910644531
1534606252.491.51824951172,0.732421875,-0.129699707031
1534606252.51.42669677734,0.617980957031,-0.0991821289062
1534606252.51.41906738281,0.755310058594,-0.335693359375
1534606252.51.50299072266,0.6103515625,-0.350952148438
1534606252.51.45721435547,0.602722167969,-0.328063964844
1534606252.51.44195556641,0.968933105469,-0.480651855469
1534606252.51.47247314453,0.907897949219,-0.48828125
1534606252.51.56402587891,0.564575195312,-0.42724609375
1534606252.51.84631347656,0.656127929688,-0.717163085938
1534606252.511.53350830078,0.862121582031,-0.381469726562
1534606252.511.31225585938,0.717163085938,-0.67138671875
1534606252.511.54876708984,0.495910644531,-0.6103515625
1534606252.521.5869140625,0.762939453125,-0.572204589844
1534606252.521.33514404297,1.06811523438,-0.312805175781
1534606252.521.59454345703,0.579833984375,-0.297546386719
1534606252.521.37329101562,0.640869140625,-0.54931640625
1534606252.521.42669677734,0.717163085938,-0.442504882812
1534606252.521.59454345703,0.328063964844,-0.602722167969
1534606252.531.45721435547,0.572204589844,-0.541687011719
1534606252.531.63269042969,0.640869140625,-0.534057617188
1534606252.531.74713134766,0.679016113281,-0.328063964844
1534606252.531.57928466797,0.6103515625,-0.30517578125
1534606252.531.57928466797,0.67138671875,-0.320434570312
1534606252.531.62506103516,0.595092773438,-0.396728515625
1534606252.531.47247314453,0.434875488281,-0.511169433594
1534606252.541.52587890625,0.381469726562,-0.617980957031
1534606252.541.48010253906,0.572204589844,-0.42724609375
1534606252.541.31988525391,0.625610351562,-0.221252441406
1534606252.541.38092041016,0.473022460938,-0.259399414062
1534606252.541.78527832031,0.350952148438,-0.297546386719
1534606252.541.77001953125,0.518798828125,-0.1220703125
1534606252.541.64031982422,0.694274902344,-0.556945800781
1534606252.551.41143798828,0.656127929688,-0.42724609375
1534606252.551.60217285156,0.587463378906,-0.289916992188
1534606252.551.53350830078,0.709533691406,-0.457763671875
1534606252.551.39617919922,0.91552734375,-0.640869140625
1534606252.551.75476074219,0.755310058594,-0.48828125
1534606252.551.79290771484,0.785827636719,-0.457763671875
1534606252.551.39617919922,0.785827636719,-0.350952148438
1534606252.561.61743164062,0.923156738281,-0.625610351562
1534606252.561.79290771484,0.770568847656,-0.663757324219
1534606252.561.60217285156,0.808715820312,-0.762939453125
1534606252.561.67083740234,0.831604003906,-0.450134277344
1534606252.561.64794921875,0.9765625,-0.495910644531
1534606252.561.45721435547,1.15966796875,-0.663757324219
1534606252.571.53350830078,0.823974609375,-0.450134277344
1534606252.571.48773193359,0.961303710938,-0.450134277344
1534606252.571.67846679688,0.869750976562,-0.595092773438
1534606252.571.50299072266,1.02996826172,-0.373840332031
1534606252.571.47247314453,0.762939453125,-0.320434570312
1534606252.571.60217285156,0.54931640625,-0.526428222656
1534606252.581.5869140625,0.511169433594,-0.442504882812
1534606252.581.56402587891,0.686645507812,-0.297546386719
1534606252.581.51062011719,0.694274902344,-0.411987304688
1534606252.581.25122070312,0.450134277344,-0.274658203125
1534606252.581.57928466797,0.259399414062,-0.30517578125
1534606252.591.50299072266,0.389099121094,-0.160217285156
1534606252.591.60980224609,0.152587890625,0.0152587890625
1534606252.591.67846679688,0.495910644531,0.167846679688
1534606252.591.38854980469,0.54931640625,-0.274658203125
1534606252.591.87683105469,0.251770019531,-0.175476074219
1534606252.61.74713134766,-0.00762939453125,-0.0991821289062
1534606252.61.56402587891,0.389099121094,-0.228881835938
1534606252.61.31988525391,0.381469726562,-0.259399414062
1534606252.61.35040283203,0.320434570312,-0.0991821289062
1534606252.61.64794921875,0.030517578125,-0.0457763671875
1534606252.61.59454345703,0.236511230469,-0.213623046875
1534606252.61.69372558594,0.244140625,-0.114440917969
1534606252.61.72424316406,0.236511230469,-0.0228881835938
1534606252.611.41143798828,0.411987304688,-0.297546386719
1534606252.611.25885009766,0.221252441406,-0.595092773438
1534606252.611.43432617188,0.236511230469,-0.137329101562
1534606252.611.51062011719,0.297546386719,-0.129699707031
1534606252.611.38092041016,0.289916992188,-0.160217285156
1534606252.621.79290771484,0.785827636719,-0.381469726562
1534606252.621.57165527344,0.48828125,-0.358581542969
1534606252.621.44958496094,0.617980957031,-0.297546386719
1534606252.621.54113769531,0.785827636719,-0.572204589844
1534606252.621.64794921875,0.648498535156,-0.434875488281
1534606252.631.62506103516,0.892639160156,-0.503540039062
1534606252.631.39617919922,0.831604003906,-0.511169433594
1534606252.631.41143798828,0.930786132812,-0.495910644531
1534606252.631.68609619141,0.900268554688,-0.572204589844
1534606252.631.52587890625,0.717163085938,-0.686645507812
1534606252.631.65557861328,0.67138671875,-0.579833984375
1534606252.641.54876708984,0.862121582031,-0.450134277344
1534606252.641.35040283203,0.869750976562,-0.732421875
1534606252.641.57928466797,0.694274902344,-0.411987304688
1534606252.641.64031982422,0.740051269531,-0.717163085938
1534606252.641.44958496094,0.778198242188,-0.67138671875
1534606252.641.52587890625,0.8544921875,-0.396728515625
1534606252.641.63269042969,0.762939453125,-0.411987304688
1534606252.651.59454345703,0.91552734375,-0.656127929688
1534606252.651.49536132812,0.808715820312,-0.526428222656
1534606252.651.55639648438,0.473022460938,-0.6103515625
1534606252.651.63269042969,0.709533691406,-0.259399414062
1534606252.651.50299072266,0.785827636719,-0.328063964844
1534606252.661.67083740234,0.526428222656,-0.259399414062
1534606252.661.35803222656,0.617980957031,0.091552734375
1534606252.661.59454345703,0.297546386719,-0.42724609375
1534606252.671.68609619141,0.587463378906,-0.381469726562
1534606252.671.48010253906,0.526428222656,-0.381469726562
1534606252.671.47247314453,0.602722167969,-0.541687011719
1534606252.671.53350830078,0.602722167969,-0.259399414062
1534606252.671.61743164062,0.503540039062,-0.289916992188
1534606252.671.61743164062,0.42724609375,-0.3662109375
1534606252.671.49536132812,0.572204589844,-0.42724609375
1534606252.681.67083740234,0.411987304688,-0.289916992188
1534606252.681.49536132812,0.640869140625,-0.396728515625
1534606252.681.56402587891,0.625610351562,-0.282287597656
1534606252.681.57165527344,0.282287597656,-0.274658203125
1534606252.681.31988525391,0.213623046875,-0.572204589844
1534606252.681.38092041016,0.480651855469,-0.411987304688
1534606252.681.48010253906,0.617980957031,-0.518798828125
1534606252.691.33514404297,0.54931640625,-0.236511230469
1534606252.691.48773193359,0.656127929688,-0.595092773438
1534606252.691.53350830078,0.564575195312,-0.396728515625
1534606252.691.73950195312,0.625610351562,-0.30517578125
1534606252.691.66320800781,0.724792480469,-0.328063964844
1534606252.691.5869140625,0.572204589844,-0.358581542969
1534606252.71.64794921875,0.755310058594,-0.54931640625
1534606252.71.29699707031,0.8544921875,-0.434875488281
1534606252.71.60980224609,0.984191894531,-0.450134277344
1534606252.71.57928466797,0.640869140625,-0.3662109375
1534606252.71.57165527344,0.572204589844,-0.572204589844
1534606252.71.47247314453,0.640869140625,-0.312805175781
1534606252.71.68609619141,0.518798828125,-0.343322753906
1534606252.711.70135498047,0.48828125,-0.656127929688
1534606252.711.51824951172,0.434875488281,-0.465393066406
1534606252.711.41906738281,0.358581542969,-0.274658203125
1534606252.711.77764892578,0.54931640625,-0.144958496094
1534606252.711.68609619141,0.6103515625,-0.282287597656
1534606252.711.57165527344,0.564575195312,-0.297546386719
1534606252.711.85394287109,1.11389160156,-0.198364257812
1534606252.721.74713134766,1.06811523438,-0.511169433594
1534606252.721.64031982422,0.755310058594,-0.297546386719
1534606252.721.50299072266,0.862121582031,-0.0686645507812
1534606252.721.65557861328,0.48828125,-0.389099121094
1534606252.721.53350830078,0.396728515625,-0.518798828125
1534606252.731.44195556641,0.267028808594,-0.0228881835938
1534606252.731.28173828125,-0.114440917969,-0.137329101562
1534606252.731.45721435547,0.343322753906,-0.434875488281
1534606252.731.45721435547,0.0686645507812,-0.0152587890625
1534606252.731.73950195312,0.717163085938,-0.213623046875
1534606252.741.64031982422,0.617980957031,-0.297546386719
1534606252.741.63269042969,0.79345703125,-0.358581542969
1534606252.741.54113769531,0.8544921875,-0.228881835938
1534606252.741.65557861328,0.79345703125,-0.465393066406
1534606252.741.48773193359,0.328063964844,-0.228881835938
1534606252.751.36566162109,0.526428222656,-0.06103515625
1534606252.751.62506103516,0.564575195312,-0.320434570312
1534606252.751.59454345703,0.480651855469,0.030517578125
1534606252.751.37329101562,0.350952148438,-0.335693359375
1534606252.751.54113769531,0.595092773438,-0.396728515625
1534606252.761.56402587891,0.740051269531,-0.511169433594
1534606252.761.48773193359,0.679016113281,-0.267028808594
1534606252.761.16729736328,0.42724609375,-0.42724609375
1534606252.761.33514404297,0.411987304688,-0.30517578125
1534606252.761.54876708984,0.518798828125,-0.617980957031
1534606252.771.55639648438,0.335693359375,-0.0839233398438
1534606252.771.55639648438,0.228881835938,-0.335693359375
1534606252.771.48773193359,0.79345703125,-0.274658203125
1534606252.771.35040283203,0.42724609375,-0.564575195312
1534606252.771.80053710938,0.724792480469,-0.434875488281
1534606252.771.55639648438,0.885009765625,-0.358581542969
1534606252.781.38854980469,0.930786132812,-0.221252441406
1534606252.781.45721435547,0.846862792969,-0.274658203125
1534606252.781.16729736328,0.79345703125,-0.54931640625
1534606252.781.50299072266,1.06811523438,-0.556945800781
1534606252.781.47247314453,0.907897949219,-0.48828125
1534606252.781.33514404297,0.450134277344,-0.602722167969
1534606252.791.41143798828,0.625610351562,-0.3662109375
1534606252.791.44195556641,0.656127929688,-0.633239746094
1534606252.791.40380859375,0.717163085938,-0.648498535156
1534606252.791.18255615234,0.663757324219,-0.335693359375
1534606252.791.51062011719,0.526428222656,-0.350952148438
1534606252.791.73950195312,0.648498535156,-0.602722167969
1534606252.791.81579589844,0.67138671875,-0.556945800781
1534606252.791.73187255859,0.724792480469,-0.587463378906
1534606252.81.51824951172,0.808715820312,-0.457763671875
1534606252.81.5869140625,0.67138671875,-0.404357910156
1534606252.81.62506103516,0.602722167969,-0.236511230469
1534606252.81.67846679688,0.602722167969,-0.373840332031
1534606252.81.17492675781,0.541687011719,-0.617980957031
1534606252.81.54113769531,0.633239746094,-0.42724609375
1534606252.811.42669677734,0.633239746094,-0.251770019531
1534606252.811.77001953125,0.6103515625,-0.282287597656
1534606252.821.81579589844,0.457763671875,-0.282287597656
1534606252.821.52587890625,0.595092773438,-0.564575195312
1534606252.821.37329101562,0.358581542969,-0.419616699219
1534606252.821.45721435547,0.656127929688,-0.190734863281
1534606252.821.5869140625,0.648498535156,-0.343322753906
1534606252.821.63269042969,0.343322753906,-0.274658203125
1534606252.831.67846679688,0.343322753906,-0.297546386719
1534606252.831.45721435547,0.541687011719,-0.244140625
1534606252.831.57928466797,0.457763671875,-0.42724609375
1534606252.831.43432617188,0.3662109375,-0.343322753906
1534606252.831.49536132812,0.320434570312,-0.30517578125
1534606252.831.39617919922,0.404357910156,-0.175476074219
1534606252.841.51824951172,0.663757324219,-0.495910644531
1534606252.841.73187255859,0.503540039062,-0.18310546875
1534606252.841.73187255859,0.389099121094,-0.137329101562
1534606252.841.38854980469,0.404357910156,-0.503540039062
1534606252.841.54876708984,0.480651855469,-0.503540039062
1534606252.841.51824951172,0.328063964844,-0.312805175781
1534606252.851.78527832031,0.251770019531,-0.282287597656
1534606252.851.62506103516,0.236511230469,-0.518798828125
1534606252.851.51062011719,0.213623046875,-0.129699707031
1534606252.851.5869140625,0.267028808594,-0.106811523438
1534606252.851.38854980469,0.442504882812,-0.137329101562
1534606252.851.56402587891,0.434875488281,-0.282287597656
1534606252.861.66320800781,0.450134277344,-0.373840332031
1534606252.861.65557861328,0.251770019531,-0.251770019531
1534606252.861.51824951172,0.556945800781,-0.30517578125
1534606252.861.73950195312,0.747680664062,-0.48828125
1534606252.861.72424316406,0.656127929688,-0.503540039062
1534606252.861.29699707031,0.785827636719,-0.625610351562
1534606252.861.43432617188,0.877380371094,-0.495910644531
1534606252.871.67846679688,0.816345214844,-0.244140625
1534606252.871.56402587891,0.770568847656,-0.289916992188
1534606252.871.36566162109,0.846862792969,-0.709533691406
1534606252.871.51824951172,0.823974609375,-0.495910644531
1534606252.871.72424316406,0.8544921875,-0.694274902344
1534606252.871.65557861328,0.770568847656,-0.480651855469
1534606252.881.61743164062,0.846862792969,-0.495910644531
1534606252.881.48773193359,1.27410888672,-0.663757324219
1534606252.881.67083740234,1.52587890625,-0.770568847656
1534606252.881.88446044922,1.42669677734,-0.877380371094
1534606252.881.68609619141,1.50299072266,-0.602722167969
1534606252.881.54876708984,1.07574462891,-0.656127929688
1534606252.891.64031982422,1.23596191406,-0.968933105469
1534606252.891.54876708984,1.19781494141,-0.816345214844
1534606252.891.708984375,0.91552734375,-0.457763671875
1534606252.891.38092041016,0.6103515625,-0.869750976562
1534606252.891.42669677734,0.534057617188,-0.564575195312
1534606252.91.73950195312,0.534057617188,-0.236511230469
1534606252.91.51062011719,0.617980957031,-0.450134277344
1534606252.91.40380859375,0.282287597656,-0.358581542969
1534606252.91.52587890625,0.473022460938,-0.137329101562
1534606252.91.57165527344,0.350952148438,-0.129699707031
1534606252.91.64794921875,0.267028808594,-0.221252441406
1534606252.911.60980224609,0.411987304688,-0.175476074219
1534606252.911.65557861328,0.06103515625,0.236511230469
1534606252.911.44958496094,0.0686645507812,0.282287597656
1534606252.911.38092041016,0.144958496094,0.0686645507812
1534606252.911.39617919922,-0.0152587890625,0.144958496094
1534606252.911.52587890625,-0.152587890625,0.144958496094
1534606252.921.28936767578,-0.160217285156,0.091552734375
1534606252.921.32751464844,-0.175476074219,0.0686645507812
1534606252.921.63269042969,0.030517578125,0.442504882812
1534606252.921.72424316406,-0.1220703125,0.0991821289062
1534606252.921.69372558594,0.00762939453125,-0.091552734375
1534606252.921.48773193359,-0.0991821289062,0.0152587890625
1534606252.931.26647949219,-0.198364257812,-0.00762939453125
1534606252.931.13677978516,0.106811523438,0.06103515625
1534606252.931.70135498047,0.0381469726562,-0.282287597656
1534606252.931.67083740234,0.495910644531,-0.343322753906
1534606252.931.51062011719,0.679016113281,-0.389099121094
1534606252.931.47247314453,0.701904296875,-0.541687011719
1534606252.941.30462646484,0.785827636719,-0.274658203125
1534606252.941.57165527344,0.999450683594,-0.770568847656
1534606252.941.67846679688,1.07574462891,-0.701904296875
1534606252.941.81579589844,1.31988525391,-0.648498535156
1534606252.951.70135498047,1.31225585938,-0.747680664062
1534606252.951.54876708984,1.55639648438,-0.755310058594
1534606252.951.77764892578,1.09100341797,-0.801086425781
1534606252.951.70135498047,0.984191894531,-0.709533691406
1534606252.951.51062011719,0.907897949219,-0.663757324219
1534606252.951.50299072266,0.946044921875,-0.640869140625
1534606252.951.60980224609,1.00708007812,-0.808715820312
1534606252.961.53350830078,1.30462646484,-1.02996826172
1534606252.961.64794921875,1.07574462891,-0.732421875
1534606252.961.37329101562,1.28173828125,-0.946044921875
1534606252.961.37329101562,1.38854980469,-0.946044921875
1534606252.971.54113769531,1.25885009766,-0.885009765625
1534606252.971.48773193359,0.450134277344,-0.259399414062
1534606252.971.51062011719,0.396728515625,-0.190734863281
1534606252.971.48773193359,0.419616699219,-0.0762939453125
1534606252.981.39617919922,0.3662109375,-0.175476074219
1534606252.981.43432617188,0.343322753906,-0.18310546875
1534606252.981.48010253906,0.0991821289062,-0.228881835938
1534606252.981.57165527344,-0.030517578125,-0.259399414062
1534606252.981.38092041016,-0.00762939453125,0.129699707031
1534606252.981.67083740234,0.0991821289062,0.251770019531
1534606252.981.43432617188,-0.236511230469,0.0381469726562
1534606252.981.40380859375,0.129699707031,-0.244140625
1534606252.991.44958496094,0.465393066406,-0.144958496094
1534606252.991.54113769531,-0.0839233398438,-0.06103515625
1534606252.991.57165527344,-0.274658203125,-0.114440917969
1534606252.991.32751464844,0.205993652344,-0.0228881835938
1534606252.991.54113769531,0.373840332031,-0.0534057617188
1534606252.991.62506103516,0.289916992188,0.0686645507812
1534606252.991.62506103516,0.205993652344,-0.160217285156
1534606253.01.64031982422,0.0381469726562,0.00762939453125
1534606253.01.56402587891,0.190734863281,-0.00762939453125
1534606253.01.57165527344,0.221252441406,-0.18310546875
1534606253.01.57165527344,0.236511230469,-0.381469726562
1534606253.01.49536132812,0.18310546875,-0.396728515625
1534606253.01.44958496094,0.534057617188,-0.389099121094
1534606253.01.27410888672,0.54931640625,-0.434875488281
1534606253.011.5869140625,0.244140625,-0.335693359375
1534606253.011.60980224609,0.358581542969,-0.381469726562
1534606253.011.60980224609,0.831604003906,-0.267028808594
1534606253.011.37329101562,0.8544921875,-0.534057617188
1534606253.011.51062011719,0.3662109375,-0.495910644531
1534606253.011.48010253906,0.564575195312,-0.556945800781
1534606253.011.60980224609,0.625610351562,-0.67138671875
1534606253.021.5869140625,0.762939453125,-0.701904296875
1534606253.021.70135498047,0.823974609375,-0.579833984375
1534606253.021.60980224609,0.67138671875,-0.350952148438
1534606253.021.44958496094,0.709533691406,-0.633239746094
1534606253.021.69372558594,0.8544921875,-0.801086425781
1534606253.021.40380859375,0.9765625,-0.679016113281
1534606253.031.62506103516,1.07574462891,-0.587463378906
1534606253.031.50299072266,1.00708007812,-0.54931640625
1534606253.031.53350830078,0.900268554688,-0.3662109375
1534606253.031.66320800781,0.862121582031,-0.480651855469
1534606253.031.67846679688,0.755310058594,-0.511169433594
1534606253.031.45721435547,0.617980957031,-0.42724609375
1534606253.041.56402587891,0.869750976562,-0.564575195312
1534606253.041.51062011719,0.518798828125,-0.42724609375
1534606253.041.57165527344,0.633239746094,-0.343322753906
1534606253.041.66320800781,0.938415527344,-0.450134277344
1534606253.041.66320800781,0.907897949219,-0.282287597656
1534606253.041.44195556641,0.907897949219,-0.648498535156
1534606253.051.708984375,0.709533691406,-0.511169433594
1534606253.051.52587890625,0.686645507812,-0.350952148438
1534606253.051.54876708984,0.656127929688,-0.419616699219
1534606253.051.54876708984,0.701904296875,-0.740051269531
1534606253.051.66320800781,0.953674316406,-0.518798828125
1534606253.061.50299072266,0.762939453125,-0.48828125
1534606253.061.18255615234,0.8544921875,-0.656127929688
1534606253.061.5869140625,0.740051269531,-0.480651855469
1534606253.061.72424316406,0.755310058594,-0.473022460938
1534606253.061.44195556641,0.892639160156,-0.457763671875
1534606253.061.49536132812,1.23596191406,-0.686645507812
1534606253.071.66320800781,1.15966796875,-0.79345703125
1534606253.071.51824951172,0.717163085938,-0.732421875
1534606253.071.71661376953,0.801086425781,-0.587463378906
1534606253.071.56402587891,0.709533691406,-0.48828125
1534606253.071.56402587891,0.6103515625,-0.511169433594
1534606253.071.51824951172,0.595092773438,-0.48828125
1534606253.081.33514404297,0.572204589844,-0.595092773438
1534606253.081.57928466797,0.762939453125,-0.457763671875
1534606253.081.74713134766,0.663757324219,-0.381469726562
1534606253.081.51062011719,0.907897949219,-0.442504882812
1534606253.081.52587890625,0.572204589844,-0.3662109375
1534606253.081.41906738281,0.198364257812,-0.221252441406
1534606253.091.24359130859,0.228881835938,-0.0534057617188
1534606253.091.42669677734,0.373840332031,-0.297546386719
1534606253.091.28936767578,0.411987304688,-0.0381469726562
1534606253.091.3427734375,0.144958496094,-0.244140625
1534606253.091.60217285156,0.0839233398438,-0.213623046875
1534606253.091.71661376953,0.114440917969,-0.236511230469
1534606253.11.48010253906,0.030517578125,-0.167846679688
1534606253.11.48773193359,0.0,0.0
1534606253.11.3427734375,0.228881835938,0.0381469726562
1534606253.11.25885009766,0.137329101562,-0.091552734375
1534606253.11.38854980469,-0.0457763671875,-0.0686645507812
1534606253.11.80816650391,0.244140625,-0.0686645507812
1534606253.11.47247314453,0.06103515625,-0.106811523438
1534606253.111.39617919922,0.259399414062,-0.0228881835938
1534606253.111.43432617188,0.18310546875,-0.190734863281
1534606253.111.60217285156,0.160217285156,-0.312805175781
1534606253.121.708984375,0.389099121094,-0.205993652344
1534606253.121.70135498047,0.656127929688,-0.48828125
1534606253.121.48773193359,0.755310058594,-0.511169433594
1534606253.131.79290771484,0.823974609375,-0.419616699219
1534606253.131.72424316406,0.999450683594,-0.518798828125
1534606253.131.60217285156,1.11389160156,-0.564575195312
1534606253.131.55639648438,0.823974609375,-0.556945800781
1534606253.131.48010253906,0.984191894531,-0.518798828125
1534606253.131.44958496094,1.20544433594,-0.54931640625
1534606253.131.41143798828,1.12152099609,-0.595092773438
1534606253.141.40380859375,1.03759765625,-0.907897949219
1534606253.141.45721435547,0.991821289062,-0.823974609375
1534606253.141.67846679688,1.14440917969,-0.595092773438
1534606253.141.54113769531,1.09100341797,-0.709533691406
1534606253.141.51824951172,1.11389160156,-0.625610351562
1534606253.141.51062011719,0.961303710938,-0.762939453125
1534606253.141.65557861328,0.762939453125,-0.717163085938
1534606253.151.63269042969,0.91552734375,-0.640869140625
1534606253.151.43432617188,0.984191894531,-0.54931640625
1534606253.151.59454345703,0.877380371094,-0.503540039062
1534606253.151.45721435547,0.67138671875,-0.686645507812
1534606253.151.42669677734,0.724792480469,-0.709533691406
1534606253.151.67083740234,0.404357910156,-0.579833984375
1534606253.161.44195556641,0.564575195312,-0.473022460938
1534606253.161.60217285156,0.419616699219,-0.297546386719
1534606253.161.71661376953,0.328063964844,-0.42724609375
1534606253.161.59454345703,0.335693359375,-0.404357910156
1534606253.161.47247314453,0.114440917969,-0.167846679688
1534606253.161.73187255859,0.457763671875,-0.335693359375
1534606253.171.29699707031,0.541687011719,-0.205993652344
1534606253.171.54876708984,0.54931640625,-0.411987304688
1534606253.171.76239013672,0.480651855469,-0.251770019531
1534606253.171.41906738281,0.396728515625,-0.328063964844
1534606253.171.51824951172,0.450134277344,-0.175476074219
1534606253.171.86157226562,0.503540039062,-0.3662109375
1534606253.181.51062011719,0.480651855469,-0.320434570312
1534606253.181.64031982422,0.617980957031,-0.434875488281
1534606253.181.63269042969,0.6103515625,-0.457763671875
1534606253.181.56402587891,0.564575195312,-0.282287597656
1534606253.181.65557861328,0.404357910156,-0.350952148438
1534606253.181.31225585938,0.91552734375,-0.587463378906
1534606253.191.64794921875,0.67138671875,-0.457763671875
1534606253.191.44195556641,0.396728515625,-0.389099121094
1534606253.191.66320800781,0.732421875,-0.617980957031
1534606253.191.52587890625,0.6103515625,-0.389099121094
1534606253.191.42669677734,0.968933105469,-0.564575195312
1534606253.21.65557861328,0.694274902344,-0.663757324219
1534606253.21.76239013672,0.495910644531,-0.42724609375
1534606253.21.56402587891,0.747680664062,-0.282287597656
1534606253.21.57928466797,0.663757324219,-0.343322753906
1534606253.21.47247314453,0.701904296875,-0.503540039062
1534606253.21.60980224609,0.785827636719,-0.541687011719
1534606253.21.57928466797,0.907897949219,-0.564575195312
1534606253.21.48773193359,0.755310058594,-0.534057617188
1534606253.211.39617919922,0.572204589844,-0.114440917969
1534606253.211.8310546875,0.190734863281,-0.343322753906
1534606253.211.57165527344,0.312805175781,-0.228881835938
1534606253.211.44195556641,0.350952148438,-0.198364257812
1534606253.211.48773193359,0.518798828125,-0.350952148438
1534606253.211.51062011719,0.396728515625,-0.267028808594
1534606253.221.38092041016,0.30517578125,-0.129699707031
1534606253.221.48773193359,0.350952148438,-0.457763671875
1534606253.221.64794921875,0.0534057617188,-0.267028808594
1534606253.221.42669677734,-0.0839233398438,-0.221252441406
1534606253.221.220703125,0.1220703125,-0.267028808594
1534606253.231.48010253906,0.18310546875,-0.213623046875
1534606253.231.43432617188,0.0152587890625,-0.160217285156
1534606253.231.54113769531,0.236511230469,-0.160217285156
1534606253.231.54113769531,0.373840332031,-0.144958496094
1534606253.231.71661376953,0.473022460938,-0.0457763671875
1534606253.231.84631347656,0.656127929688,-0.381469726562
1534606253.231.41906738281,0.495910644531,-0.526428222656
1534606253.241.43432617188,0.564575195312,-0.434875488281
1534606253.241.90734863281,1.05285644531,-0.518798828125
1534606253.241.88446044922,1.61743164062,-0.640869140625
1534606253.241.86157226562,1.30462646484,-0.526428222656
1534606253.241.56402587891,0.816345214844,-0.701904296875
1534606253.241.31225585938,0.801086425781,-0.930786132812
1534606253.251.76239013672,1.23596191406,-0.8544921875
1534606253.251.44958496094,1.38092041016,-0.846862792969
1534606253.261.54876708984,0.938415527344,-0.694274902344
1534606253.261.52587890625,1.28936767578,-0.79345703125
1534606253.261.94549560547,1.10626220703,-0.663757324219
1534606253.261.70135498047,0.9765625,-0.831604003906
1534606253.261.44958496094,0.946044921875,-0.694274902344
1534606253.261.44958496094,1.00708007812,-0.640869140625
1534606253.271.30462646484,0.869750976562,-0.709533691406
1534606253.271.43432617188,0.3662109375,-0.617980957031
1534606253.271.73950195312,0.18310546875,-0.411987304688
1534606253.271.57928466797,0.0991821289062,-0.18310546875
1534606253.271.30462646484,-0.0991821289062,-0.335693359375
1534606253.271.39617919922,0.213623046875,-0.251770019531
1534606253.271.31988525391,0.411987304688,-0.373840332031
1534606253.281.42669677734,0.526428222656,-0.350952148438
1534606253.281.64031982422,0.350952148438,0.0228881835938
1534606253.281.93786621094,0.534057617188,0.1220703125
1534606253.281.81579589844,0.587463378906,-0.0152587890625
1534606253.281.54876708984,0.648498535156,-0.267028808594
1534606253.281.41906738281,0.656127929688,-0.282287597656
1534606253.281.55639648438,0.816345214844,0.091552734375
1534606253.291.55639648438,0.709533691406,-0.167846679688
1534606253.291.55639648438,0.450134277344,0.030517578125
1534606253.291.54113769531,-0.160217285156,0.259399414062
1534606253.291.47247314453,-0.114440917969,-0.160217285156
1534606253.291.63269042969,0.030517578125,-0.152587890625
1534606253.291.42669677734,-0.175476074219,-0.259399414062
1534606253.31.51824951172,0.0152587890625,-0.404357910156
1534606253.31.45721435547,0.30517578125,-0.633239746094
1534606253.31.44958496094,0.625610351562,-0.30517578125
1534606253.31.44195556641,0.625610351562,-0.289916992188
1534606253.31.46484375,0.602722167969,-0.358581542969
1534606253.31.67846679688,0.663757324219,-0.3662109375
1534606253.31.60217285156,0.953674316406,-0.274658203125
1534606253.311.54113769531,1.07574462891,-0.564575195312
1534606253.311.79290771484,1.28173828125,-0.625610351562
1534606253.311.35803222656,1.12915039062,-0.747680664062
1534606253.311.5869140625,0.9765625,-0.679016113281
1534606253.311.44958496094,0.900268554688,-0.564575195312
1534606253.311.63269042969,1.220703125,-0.595092773438
1534606253.321.47247314453,1.15203857422,-0.839233398438
1534606253.321.63269042969,1.11389160156,-0.648498535156
1534606253.321.44195556641,1.11389160156,-0.709533691406
1534606253.321.90734863281,1.12152099609,-1.12152099609
1534606253.321.73950195312,1.02233886719,-0.381469726562
1534606253.331.67846679688,0.885009765625,-0.3662109375
1534606253.331.45721435547,0.701904296875,-0.42724609375
1534606253.331.5869140625,0.595092773438,-0.350952148438
1534606253.331.63269042969,0.633239746094,-0.160217285156
1534606253.331.52587890625,0.625610351562,-0.106811523438
1534606253.341.54113769531,0.221252441406,-0.442504882812
1534606253.341.49536132812,0.434875488281,-0.251770019531
1534606253.341.61743164062,0.0381469726562,-0.0457763671875
1534606253.341.70135498047,0.129699707031,-0.06103515625
1534606253.341.77764892578,-0.06103515625,-0.0686645507812
1534606253.341.84631347656,0.030517578125,0.091552734375
1534606253.351.42669677734,-0.144958496094,0.160217285156
1534606253.351.31988525391,-0.0381469726562,-0.0457763671875
1534606253.351.31988525391,-0.221252441406,-0.137329101562
1534606253.351.41906738281,-0.335693359375,-0.06103515625
1534606253.351.52587890625,-0.0228881835938,0.0457763671875
1534606253.351.72424316406,0.114440917969,0.0
1534606253.361.60217285156,0.167846679688,-0.30517578125
1534606253.361.41143798828,0.228881835938,-0.213623046875
1534606253.361.40380859375,0.373840332031,0.0228881835938
1534606253.361.41906738281,0.595092773438,0.0228881835938
1534606253.361.53350830078,0.541687011719,-0.259399414062
1534606253.361.64031982422,0.595092773438,-0.434875488281
1534606253.361.50299072266,0.816345214844,-0.404357910156
1534606253.371.40380859375,0.892639160156,-0.175476074219
1534606253.371.5869140625,0.801086425781,-0.42724609375
1534606253.371.44195556641,0.640869140625,-0.587463378906
1534606253.371.57928466797,0.67138671875,-0.679016113281
1534606253.371.68609619141,0.579833984375,-0.534057617188
1534606253.371.77764892578,0.396728515625,-0.503540039062
1534606253.381.23596191406,0.724792480469,-0.869750976562
1534606253.381.44958496094,0.923156738281,-0.907897949219
1534606253.381.60217285156,1.08337402344,-0.686645507812
1534606253.381.86157226562,1.06811523438,-0.633239746094
1534606253.381.64794921875,1.27410888672,-0.709533691406
1534606253.381.80816650391,1.41906738281,-0.938415527344
1534606253.391.51824951172,0.991821289062,-0.747680664062
1534606253.391.70135498047,1.17492675781,-0.846862792969
1534606253.391.73187255859,0.946044921875,-0.701904296875
1534606253.391.50299072266,0.8544921875,-0.617980957031
1534606253.391.65557861328,0.8544921875,-0.572204589844
1534606253.391.59454345703,1.02233886719,-0.6103515625
1534606253.41.54113769531,0.953674316406,-0.617980957031
1534606253.41.57928466797,0.717163085938,-0.503540039062
1534606253.41.86157226562,0.701904296875,-0.480651855469
1534606253.41.63269042969,0.694274902344,-0.267028808594
1534606253.41.50299072266,0.328063964844,-0.389099121094
1534606253.411.53350830078,0.411987304688,-0.3662109375
1534606253.411.30462646484,0.755310058594,-0.343322753906
1534606253.421.31225585938,0.00762939453125,-0.633239746094
1534606253.421.50299072266,0.404357910156,-0.297546386719
1534606253.421.53350830078,0.724792480469,-0.350952148438
1534606253.421.54876708984,0.526428222656,-0.389099121094
1534606253.421.63269042969,0.175476074219,-0.42724609375
1534606253.421.35040283203,0.167846679688,-0.419616699219
1534606253.421.46484375,0.465393066406,-0.228881835938
1534606253.431.45721435547,0.862121582031,-0.335693359375
1534606253.431.35803222656,0.961303710938,-0.434875488281
1534606253.431.35803222656,0.778198242188,-0.48828125
1534606253.431.44958496094,0.816345214844,-0.396728515625
1534606253.431.31988525391,0.862121582031,-0.267028808594
1534606253.431.47247314453,0.839233398438,-0.442504882812
1534606253.431.73950195312,1.09100341797,-0.434875488281
1534606253.441.708984375,0.938415527344,-0.350952148438
1534606253.441.54113769531,0.541687011719,-0.320434570312
1534606253.441.30462646484,0.572204589844,-0.541687011719
1534606253.441.51824951172,0.953674316406,-0.633239746094
1534606253.441.50299072266,1.04522705078,-0.30517578125
1534606253.441.56402587891,0.778198242188,-0.465393066406
1534606253.451.41143798828,0.3662109375,-0.518798828125
1534606253.451.67083740234,-0.160217285156,-0.244140625
1534606253.451.54876708984,0.434875488281,-0.556945800781
1534606253.461.35040283203,0.0457763671875,-0.289916992188
1534606253.461.5869140625,0.228881835938,-0.152587890625
1534606253.461.45721435547,0.267028808594,-0.114440917969
1534606253.461.56402587891,0.0228881835938,-0.114440917969
1534606253.471.69372558594,0.3662109375,-0.190734863281
1534606253.471.71661376953,0.411987304688,0.106811523438
1534606253.471.57928466797,0.213623046875,0.0762939453125
1534606253.471.73187255859,0.297546386719,-0.228881835938
1534606253.481.56402587891,0.595092773438,-0.236511230469
1534606253.481.41143798828,0.274658203125,-0.228881835938
1534606253.481.53350830078,0.396728515625,-0.144958496094
1534606253.481.77764892578,0.686645507812,-0.205993652344
1534606253.481.75476074219,0.457763671875,-0.358581542969
1534606253.481.5869140625,0.587463378906,-0.442504882812
1534606253.491.64031982422,0.640869140625,-0.373840332031
1534606253.491.53350830078,0.381469726562,-0.42724609375
1534606253.491.38092041016,0.938415527344,-0.518798828125
1534606253.491.60980224609,0.907897949219,-0.595092773438
1534606253.491.55639648438,0.907897949219,-0.511169433594
1534606253.51.44958496094,0.633239746094,-0.770568847656
1534606253.51.73950195312,0.816345214844,-0.656127929688
1534606253.51.55639648438,0.846862792969,-0.564575195312
1534606253.51.53350830078,0.831604003906,-0.503540039062
1534606253.51.5869140625,1.06811523438,-0.48828125
1534606253.51.49536132812,1.19018554688,-0.679016113281
1534606253.511.708984375,1.13677978516,-0.91552734375
1534606253.511.74713134766,1.02233886719,-0.709533691406
1534606253.511.38092041016,0.999450683594,-0.480651855469
1534606253.511.33514404297,0.999450683594,-0.595092773438
1534606253.511.41906738281,0.770568847656,-0.419616699219
1534606253.521.67846679688,1.12152099609,-0.572204589844
1534606253.521.72424316406,0.8544921875,-0.495910644531
1534606253.521.45721435547,0.808715820312,-0.411987304688
1534606253.521.52587890625,0.602722167969,-0.381469726562
1534606253.521.44958496094,0.450134277344,-0.389099121094
1534606253.531.29699707031,0.656127929688,-0.450134277344
1534606253.531.51824951172,0.526428222656,-0.198364257812
1534606253.531.66320800781,0.30517578125,-0.0839233398438
1534606253.531.59454345703,0.595092773438,-0.175476074219
1534606253.531.61743164062,0.320434570312,-0.526428222656
1534606253.531.77001953125,0.503540039062,-0.350952148438
1534606253.541.65557861328,0.518798828125,-0.358581542969
1534606253.541.48773193359,0.404357910156,-0.18310546875
1534606253.541.60217285156,0.48828125,-0.404357910156
1534606253.541.51062011719,0.709533691406,-0.48828125
1534606253.541.51824951172,0.587463378906,-0.457763671875
1534606253.541.71661376953,1.05285644531,-0.396728515625
1534606253.551.48010253906,0.946044921875,-0.457763671875
1534606253.551.74713134766,0.801086425781,-0.564575195312
1534606253.551.59454345703,0.877380371094,-0.335693359375
1534606253.551.25122070312,0.808715820312,-0.343322753906
1534606253.551.36566162109,0.91552734375,-0.3662109375
1534606253.551.5869140625,0.968933105469,-0.465393066406
1534606253.551.72424316406,0.8544921875,-0.503540039062
1534606253.551.54113769531,0.938415527344,-0.480651855469
1534606253.561.51062011719,1.02233886719,-0.373840332031
1534606253.561.57165527344,0.984191894531,-0.42724609375
1534606253.561.73950195312,0.816345214844,-0.465393066406
1534606253.561.27410888672,0.648498535156,-0.518798828125
1534606253.561.65557861328,0.885009765625,-0.411987304688
1534606253.571.37329101562,0.625610351562,-0.48828125
1534606253.571.49536132812,0.495910644531,-0.267028808594
1534606253.581.25122070312,0.221252441406,-0.289916992188
1534606253.581.43432617188,0.282287597656,0.0
1534606253.581.82342529297,0.267028808594,-0.091552734375
1534606253.581.60217285156,0.259399414062,-0.160217285156
1534606253.581.44958496094,0.312805175781,-0.106811523438
1534606253.581.40380859375,0.18310546875,-0.0991821289062
1534606253.581.38854980469,0.0762939453125,-0.0381469726562
1534606253.591.27410888672,0.30517578125,-0.0686645507812
1534606253.591.52587890625,0.320434570312,0.0
1534606253.591.84631347656,0.312805175781,-0.00762939453125
1534606253.591.63269042969,0.3662109375,-0.137329101562
1534606253.591.28936767578,0.267028808594,0.0762939453125
1534606253.591.55639648438,0.312805175781,-0.0762939453125
1534606253.591.57165527344,0.160217285156,-0.190734863281
1534606253.61.28936767578,0.457763671875,-0.3662109375
1534606253.61.64031982422,0.419616699219,-0.205993652344
1534606253.61.72424316406,0.411987304688,-0.213623046875
1534606253.61.51062011719,0.282287597656,-0.0381469726562
1534606253.61.28173828125,0.289916992188,-0.320434570312
1534606253.61.35803222656,0.625610351562,-0.595092773438
1534606253.61.60980224609,0.54931640625,-0.389099121094
1534606253.611.50299072266,0.511169433594,-0.404357910156
1534606253.611.57165527344,0.167846679688,-0.465393066406
1534606253.611.63269042969,0.602722167969,-0.419616699219
1534606253.611.86157226562,0.694274902344,-0.350952148438
1534606253.611.70135498047,0.656127929688,-0.724792480469
1534606253.611.64794921875,1.02996826172,-0.663757324219
1534606253.611.73950195312,1.01470947266,-0.511169433594
1534606253.621.44195556641,0.946044921875,-0.633239746094
1534606253.621.68609619141,1.12915039062,-0.79345703125
1534606253.621.75476074219,1.12152099609,-0.762939453125
1534606253.621.82342529297,1.14440917969,-0.587463378906
1534606253.621.54876708984,1.06048583984,-0.67138671875
1534606253.621.55639648438,1.10626220703,-0.747680664062
1534606253.631.73950195312,1.14440917969,-0.79345703125
1534606253.631.76239013672,1.14440917969,-0.8544921875
1534606253.631.53350830078,0.892639160156,-0.617980957031
1534606253.631.67846679688,0.831604003906,-0.679016113281
1534606253.631.77001953125,1.12152099609,-0.9765625
1534606253.631.39617919922,0.984191894531,-0.587463378906
1534606253.641.41143798828,0.724792480469,-0.419616699219
1534606253.641.68609619141,0.709533691406,-0.328063964844
1534606253.641.64031982422,0.297546386719,-0.503540039062
1534606253.641.38092041016,0.48828125,-0.259399414062
1534606253.641.49536132812,0.648498535156,-0.465393066406
1534606253.651.56402587891,0.160217285156,-0.282287597656
1534606253.651.64031982422,0.373840332031,-0.129699707031
1534606253.651.5869140625,0.160217285156,-0.106811523438
1534606253.651.54113769531,0.00762939453125,-0.175476074219
1534606253.651.44195556641,0.221252441406,-0.259399414062
1534606253.651.43432617188,0.335693359375,-0.213623046875
1534606253.651.25122070312,0.320434570312,-0.274658203125
1534606253.651.31988525391,0.251770019531,-0.244140625
1534606253.661.59454345703,0.434875488281,0.0762939453125
1534606253.661.37329101562,0.0381469726562,-0.274658203125
1534606253.661.63269042969,0.30517578125,-0.221252441406
1534606253.661.46484375,0.6103515625,-0.335693359375
1534606253.661.21307373047,0.518798828125,-0.06103515625
1534606253.661.45721435547,0.541687011719,-0.106811523438
1534606253.671.47247314453,0.816345214844,-0.450134277344
1534606253.671.73187255859,0.6103515625,-0.259399414062
1534606253.671.61743164062,0.457763671875,-0.480651855469
1534606253.671.35040283203,0.579833984375,-0.48828125
1534606253.671.43432617188,0.892639160156,-0.434875488281
1534606253.681.66320800781,0.648498535156,-0.755310058594
1534606253.681.64031982422,1.02996826172,-0.640869140625
1534606253.681.5869140625,0.946044921875,-0.518798828125
1534606253.681.44195556641,0.9765625,-0.732421875
1534606253.681.46484375,0.686645507812,-0.823974609375
1534606253.681.77764892578,0.831604003906,-0.732421875
1534606253.681.78527832031,1.00708007812,-0.663757324219
1534606253.691.48773193359,0.984191894531,-0.564575195312
1534606253.691.57165527344,0.885009765625,-0.732421875
1534606253.691.5869140625,0.823974609375,-0.511169433594
1534606253.691.64031982422,0.869750976562,-0.534057617188
1534606253.691.46484375,0.877380371094,-0.434875488281
1534606253.691.63269042969,0.724792480469,-0.656127929688
1534606253.71.54876708984,0.579833984375,-0.244140625
1534606253.71.42669677734,0.694274902344,-0.457763671875
1534606253.71.64794921875,0.663757324219,-0.495910644531
1534606253.71.24359130859,0.923156738281,-0.274658203125
1534606253.71.69372558594,0.373840332031,-0.221252441406
1534606253.71.57165527344,0.503540039062,-0.167846679688
1534606253.711.50299072266,0.67138671875,-0.419616699219
1534606253.711.64794921875,0.518798828125,-0.457763671875
1534606253.711.54113769531,0.343322753906,-0.06103515625
1534606253.711.92260742188,0.282287597656,-0.335693359375
1534606253.711.74713134766,-0.0762939453125,0.0228881835938
1534606253.711.51824951172,0.0686645507812,-0.0457763671875
1534606253.721.20544433594,-0.106811523438,-0.221252441406
1534606253.731.54876708984,0.152587890625,-0.1220703125
1534606253.731.49536132812,0.213623046875,-0.0839233398438
1534606253.731.49536132812,0.312805175781,0.0762939453125
1534606253.731.44195556641,0.343322753906,-0.06103515625
1534606253.731.41906738281,0.587463378906,-0.091552734375
1534606253.731.55639648438,0.30517578125,-0.358581542969
1534606253.741.57165527344,0.381469726562,-0.0457763671875
1534606253.741.5869140625,0.42724609375,-0.213623046875
1534606253.741.35803222656,0.541687011719,-0.457763671875
1534606253.741.35040283203,0.595092773438,-0.434875488281
1534606253.741.43432617188,0.450134277344,-0.694274902344
1534606253.741.79290771484,0.839233398438,-0.556945800781
1534606253.741.73950195312,1.02996826172,-0.633239746094
1534606253.741.55639648438,0.907897949219,-0.617980957031
1534606253.751.63269042969,0.869750976562,-0.823974609375
1534606253.751.46484375,1.12152099609,-0.755310058594
1534606253.751.60980224609,1.08337402344,-0.526428222656
1534606253.751.67083740234,1.12152099609,-0.656127929688
1534606253.751.48010253906,1.07574462891,-0.823974609375
1534606253.751.51824951172,1.04522705078,-0.701904296875
1534606253.751.41906738281,1.06048583984,-0.877380371094
1534606253.761.51824951172,1.23596191406,-0.755310058594
1534606253.761.45721435547,1.16729736328,-0.663757324219
1534606253.761.62506103516,1.09100341797,-0.663757324219
1534606253.761.77001953125,1.08337402344,-0.778198242188
1534606253.761.64031982422,1.01470947266,-0.778198242188
1534606253.761.61743164062,1.42669677734,-0.579833984375
1534606253.761.8310546875,1.17492675781,-0.587463378906
1534606253.771.73187255859,1.03759765625,-0.701904296875
1534606253.771.46484375,1.19781494141,-0.457763671875
1534606253.771.46484375,1.38854980469,-0.648498535156
1534606253.771.57165527344,0.656127929688,-0.595092773438
1534606253.771.31988525391,0.755310058594,-0.564575195312
1534606253.781.72424316406,0.8544921875,-0.480651855469
1534606253.781.41906738281,0.381469726562,-0.595092773438
1534606253.781.5869140625,0.534057617188,-0.526428222656
1534606253.781.41143798828,0.656127929688,-0.434875488281
1534606253.781.44195556641,0.465393066406,-0.480651855469
1534606253.791.40380859375,0.640869140625,-0.160217285156
1534606253.791.64031982422,0.160217285156,-0.213623046875
1534606253.791.54113769531,0.602722167969,-0.129699707031
1534606253.791.35040283203,0.526428222656,-0.213623046875
1534606253.791.38854980469,0.495910644531,-0.114440917969
1534606253.791.60217285156,0.457763671875,-0.152587890625
1534606253.791.65557861328,0.457763671875,-0.259399414062
1534606253.81.52587890625,0.267028808594,-0.0762939453125
1534606253.81.3427734375,0.205993652344,0.0686645507812
1534606253.81.3427734375,0.389099121094,-0.129699707031
1534606253.81.57165527344,0.30517578125,-0.282287597656
1534606253.81.60217285156,0.411987304688,-0.259399414062
1534606253.81.67083740234,0.358581542969,0.00762939453125
1534606253.81.65557861328,0.236511230469,-0.167846679688
1534606253.81.60217285156,0.350952148438,-0.328063964844
1534606253.811.57928466797,0.404357910156,-0.434875488281
1534606253.811.71661376953,0.755310058594,-0.419616699219
1534606253.811.54876708984,0.579833984375,-0.442504882812
1534606253.811.86157226562,0.633239746094,-0.320434570312
1534606253.811.46484375,0.274658203125,-0.541687011719
1534606253.811.76239013672,0.640869140625,-0.602722167969
1534606253.821.51824951172,0.579833984375,-0.457763671875
1534606253.821.47247314453,0.381469726562,-0.381469726562
1534606253.821.55639648438,0.434875488281,-0.473022460938
1534606253.821.76239013672,0.808715820312,-0.457763671875
1534606253.821.59454345703,0.595092773438,-0.419616699219
1534606253.831.64031982422,0.79345703125,-0.274658203125
1534606253.831.68609619141,0.770568847656,-0.129699707031
1534606253.831.59454345703,0.778198242188,-0.312805175781
1534606253.831.67846679688,0.900268554688,-0.450134277344
1534606253.831.35040283203,0.6103515625,-0.534057617188
1534606253.831.47247314453,0.267028808594,-0.434875488281
1534606253.841.55639648438,0.328063964844,-0.259399414062
1534606253.841.50299072266,0.3662109375,-0.373840332031
1534606253.841.31988525391,0.541687011719,-0.328063964844
1534606253.841.44958496094,0.267028808594,-0.198364257812
1534606253.841.62506103516,-0.0381469726562,-0.404357910156
1534606253.841.57928466797,-0.1220703125,-0.457763671875
1534606253.841.62506103516,0.251770019531,-0.297546386719
1534606253.841.64031982422,0.267028808594,-0.381469726562
1534606253.851.44195556641,0.328063964844,-0.404357910156
1534606253.851.47247314453,0.328063964844,-0.091552734375
1534606253.851.74713134766,0.381469726562,-0.0152587890625
1534606253.851.70135498047,0.617980957031,-0.358581542969
1534606253.851.84631347656,0.663757324219,-0.267028808594
1534606253.851.60217285156,0.640869140625,-0.06103515625
1534606253.861.52587890625,0.381469726562,-0.0457763671875
1534606253.871.43432617188,0.617980957031,-0.419616699219
1534606253.871.45721435547,0.274658203125,-0.694274902344
1534606253.871.56402587891,0.648498535156,-0.404357910156
1534606253.871.69372558594,1.04522705078,-0.259399414062
1534606253.871.66320800781,0.701904296875,-0.6103515625
1534606253.871.54113769531,0.617980957031,-0.411987304688
1534606253.881.38854980469,0.686645507812,-0.572204589844
1534606253.881.56402587891,0.694274902344,-0.595092773438
1534606253.881.67083740234,0.67138671875,-0.419616699219
1534606253.881.80816650391,0.801086425781,-0.42724609375
1534606253.881.66320800781,1.04522705078,-0.480651855469
1534606253.881.50299072266,1.15966796875,-0.541687011719
1534606253.881.56402587891,0.740051269531,-0.701904296875
1534606253.881.51062011719,0.785827636719,-0.640869140625
1534606253.891.51062011719,0.961303710938,-0.656127929688
1534606253.891.71661376953,0.923156738281,-0.709533691406
1534606253.891.48010253906,0.885009765625,-0.6103515625
1534606253.891.37329101562,0.900268554688,-0.625610351562
1534606253.891.52587890625,0.999450683594,-0.526428222656
1534606253.891.60217285156,0.946044921875,-0.534057617188
1534606253.91.39617919922,0.877380371094,-0.587463378906
1534606253.91.38092041016,0.747680664062,-0.480651855469
1534606253.91.67083740234,0.663757324219,-0.434875488281
1534606253.91.8310546875,0.625610351562,-0.579833984375
1534606253.91.71661376953,0.79345703125,-0.465393066406
1534606253.91.63269042969,0.946044921875,-0.473022460938
1534606253.91.44195556641,0.747680664062,-0.381469726562
1534606253.911.39617919922,0.640869140625,-0.190734863281
1534606253.911.62506103516,0.732421875,-0.244140625
1534606253.911.67083740234,0.503540039062,-0.419616699219
1534606253.911.56402587891,0.42724609375,-0.297546386719
1534606253.911.63269042969,0.480651855469,-0.0534057617188
1534606253.921.38092041016,0.3662109375,-0.0686645507812
1534606253.921.67846679688,0.335693359375,-0.289916992188
1534606253.921.48773193359,0.0381469726562,-0.358581542969
1534606253.921.45721435547,0.251770019531,-0.30517578125
1534606253.921.48773193359,0.190734863281,-0.3662109375
1534606253.931.68609619141,0.259399414062,0.0152587890625
1534606253.931.43432617188,0.495910644531,-0.42724609375
1534606253.931.75476074219,0.480651855469,-0.320434570312
1534606253.931.85394287109,0.541687011719,-0.54931640625
1534606253.931.29699707031,0.602722167969,-0.534057617188
1534606253.941.40380859375,0.556945800781,-0.274658203125
1534606253.941.54113769531,0.526428222656,-0.42724609375
1534606253.941.81579589844,0.869750976562,-0.42724609375
1534606253.941.67083740234,0.640869140625,-0.381469726562
1534606253.941.39617919922,0.785827636719,-0.640869140625
1534606253.951.28173828125,0.556945800781,-0.297546386719
1534606253.951.64031982422,0.694274902344,-0.343322753906
1534606253.951.69372558594,0.343322753906,-0.579833984375
1534606253.951.46484375,0.503540039062,-0.450134277344
1534606253.951.50299072266,0.755310058594,-0.48828125
1534606253.961.59454345703,0.541687011719,-0.411987304688
1534606253.961.57165527344,0.328063964844,-0.389099121094
1534606253.961.78527832031,0.473022460938,-0.312805175781
1534606253.961.57165527344,0.503540039062,-0.30517578125
1534606253.961.54876708984,0.6103515625,-0.228881835938
1534606253.971.77001953125,0.785827636719,-0.411987304688
1534606253.971.66320800781,0.442504882812,-0.267028808594
1534606253.971.67083740234,0.343322753906,-0.411987304688
1534606253.971.62506103516,0.389099121094,-0.480651855469
1534606253.971.31988525391,0.320434570312,-0.236511230469
1534606253.971.48010253906,0.518798828125,-0.320434570312
1534606253.981.48773193359,0.48828125,-0.228881835938
1534606253.981.38092041016,0.213623046875,-0.236511230469
1534606253.981.37329101562,0.358581542969,-0.213623046875
1534606253.981.5869140625,0.259399414062,-0.244140625
1534606253.981.51062011719,0.442504882812,-0.00762939453125
1534606253.981.50299072266,0.579833984375,0.0991821289062
1534606253.991.60217285156,0.480651855469,-0.251770019531
1534606253.991.48773193359,0.320434570312,-0.213623046875
1534606253.991.54876708984,0.190734863281,-0.251770019531
1534606253.991.65557861328,0.579833984375,-0.48828125
1534606253.991.74713134766,0.617980957031,-0.450134277344
1534606253.991.80053710938,0.48828125,-0.312805175781
1534606253.991.5869140625,0.640869140625,-0.236511230469
1534606253.991.40380859375,0.625610351562,-0.389099121094
1534606253.991.64031982422,0.6103515625,-0.595092773438
1534606254.01.48773193359,0.755310058594,-0.54931640625
1534606254.01.51062011719,0.755310058594,-0.381469726562
1534606254.01.66320800781,0.511169433594,-0.335693359375
1534606254.01.63269042969,0.663757324219,-0.617980957031
1534606254.01.708984375,0.633239746094,-0.595092773438
1534606254.011.74713134766,0.892639160156,-0.6103515625
1534606254.011.42669677734,0.968933105469,-0.778198242188
1534606254.021.66320800781,0.831604003906,-0.67138671875
1534606254.021.67083740234,0.968933105469,-0.701904296875
1534606254.021.54113769531,0.930786132812,-0.694274902344
1534606254.021.51062011719,0.9765625,-0.54931640625
1534606254.021.63269042969,0.846862792969,-0.572204589844
1534606254.021.708984375,0.938415527344,-0.457763671875
1534606254.021.69372558594,0.801086425781,-0.617980957031
1534606254.031.41143798828,0.648498535156,-0.587463378906
1534606254.031.60980224609,0.907897949219,-0.556945800781
1534606254.031.69372558594,0.6103515625,-0.48828125
1534606254.031.60217285156,0.503540039062,-0.320434570312
1534606254.031.5869140625,0.526428222656,-0.389099121094
1534606254.031.73187255859,0.419616699219,-0.526428222656
1534606254.031.67083740234,0.373840332031,-0.465393066406
1534606254.041.48010253906,0.457763671875,-0.289916992188
1534606254.041.50299072266,0.3662109375,-0.205993652344
1534606254.041.53350830078,0.358581542969,-0.411987304688
1534606254.041.74713134766,0.091552734375,-0.473022460938
1534606254.041.72424316406,0.30517578125,-0.389099121094
1534606254.041.46484375,-0.00762939453125,-0.389099121094
1534606254.041.40380859375,0.289916992188,-0.198364257812
1534606254.051.63269042969,0.190734863281,0.0762939453125
1534606254.051.49536132812,0.381469726562,-0.0381469726562
1534606254.051.54113769531,0.259399414062,-0.167846679688
1534606254.051.35803222656,0.267028808594,-0.282287597656
1534606254.051.76239013672,0.556945800781,-0.06103515625
1534606254.051.79290771484,0.205993652344,-0.244140625
1534606254.061.62506103516,0.442504882812,-0.259399414062
1534606254.061.43432617188,0.190734863281,-0.404357910156
1534606254.061.65557861328,0.495910644531,-0.274658203125
1534606254.061.73950195312,0.457763671875,-0.18310546875
1534606254.061.63269042969,0.335693359375,-0.289916992188
1534606254.061.28173828125,0.54931640625,-0.213623046875
1534606254.071.62506103516,0.396728515625,-0.282287597656
1534606254.071.54113769531,0.686645507812,-0.473022460938
1534606254.071.67846679688,0.595092773438,-0.48828125
1534606254.071.51824951172,0.91552734375,-0.572204589844
1534606254.071.63269042969,0.511169433594,-0.160217285156
1534606254.081.55639648438,0.740051269531,-0.541687011719
1534606254.081.64031982422,0.961303710938,-0.442504882812
1534606254.081.93023681641,0.892639160156,-0.663757324219
1534606254.081.75476074219,0.633239746094,-0.518798828125
1534606254.091.90734863281,0.717163085938,-0.457763671875
1534606254.091.67846679688,0.946044921875,-0.511169433594
1534606254.091.61743164062,0.679016113281,-0.350952148438
1534606254.091.45721435547,0.534057617188,-0.572204589844
1534606254.091.77001953125,0.717163085938,-0.595092773438
1534606254.091.64794921875,0.457763671875,-0.534057617188
1534606254.11.76239013672,0.770568847656,-0.572204589844
1534606254.11.5869140625,0.724792480469,-0.579833984375
1534606254.11.43432617188,0.617980957031,-0.495910644531
1534606254.11.56402587891,0.709533691406,-0.442504882812
1534606254.11.77764892578,0.907897949219,-0.381469726562
1534606254.11.77001953125,0.572204589844,-0.236511230469
1534606254.11.61743164062,0.419616699219,-0.228881835938
1534606254.11.54113769531,0.541687011719,-0.381469726562
1534606254.11.57928466797,0.0839233398438,-0.350952148438
1534606254.111.57928466797,0.259399414062,-0.0839233398438
1534606254.111.60980224609,0.511169433594,-0.396728515625
1534606254.111.44958496094,0.823974609375,-0.335693359375
1534606254.111.61743164062,0.328063964844,-0.42724609375
1534606254.111.48010253906,0.389099121094,-0.289916992188
1534606254.111.28173828125,0.3662109375,-0.1220703125
1534606254.121.51824951172,0.495910644531,-0.1220703125
1534606254.121.83868408203,0.694274902344,-0.152587890625
1534606254.121.71661376953,0.373840332031,-0.289916992188
1534606254.121.54876708984,0.564575195312,-0.167846679688
1534606254.121.708984375,0.495910644531,-0.244140625
1534606254.121.48010253906,0.465393066406,-0.54931640625
1534606254.131.53350830078,0.701904296875,-0.350952148438
1534606254.131.55639648438,0.465393066406,-0.534057617188
1534606254.131.48010253906,0.625610351562,-0.480651855469
1534606254.131.62506103516,0.869750976562,-0.625610351562
1534606254.131.54876708984,0.709533691406,-0.480651855469
1534606254.141.56402587891,0.648498535156,-0.473022460938
1534606254.141.48010253906,0.823974609375,-0.396728515625
1534606254.141.67083740234,0.862121582031,-0.442504882812
1534606254.141.45721435547,0.846862792969,-0.495910644531
1534606254.141.57928466797,0.701904296875,-0.6103515625
1534606254.141.55639648438,0.9765625,-0.541687011719
1534606254.141.63269042969,0.801086425781,-0.6103515625
1534606254.151.45721435547,0.724792480469,-0.3662109375
1534606254.151.59454345703,0.640869140625,-0.503540039062
1534606254.161.73187255859,0.823974609375,-0.640869140625
1534606254.161.48010253906,0.617980957031,-0.518798828125
1534606254.161.48773193359,0.709533691406,-0.282287597656
1534606254.161.64031982422,0.755310058594,-0.419616699219
1534606254.161.70135498047,0.79345703125,-0.518798828125
1534606254.171.57928466797,0.595092773438,-0.457763671875
1534606254.171.28173828125,0.404357910156,-0.335693359375
1534606254.171.53350830078,0.30517578125,-0.42724609375
1534606254.171.50299072266,0.6103515625,-0.381469726562
1534606254.171.41906738281,0.511169433594,-0.358581542969
1534606254.171.63269042969,0.473022460938,-0.350952148438
1534606254.171.72424316406,0.686645507812,-0.358581542969
1534606254.181.31988525391,0.686645507812,-0.030517578125
1534606254.181.45721435547,0.480651855469,-0.175476074219
1534606254.181.55639648438,0.801086425781,-0.267028808594
1534606254.181.46484375,0.503540039062,-0.495910644531
1534606254.181.35040283203,0.572204589844,-0.297546386719
1534606254.181.40380859375,0.350952148438,-0.343322753906
1534606254.181.43432617188,0.480651855469,-0.213623046875
1534606254.191.41906738281,0.389099121094,-0.205993652344
1534606254.191.42669677734,0.48828125,-0.160217285156
1534606254.191.22833251953,0.328063964844,-0.328063964844
1534606254.191.62506103516,0.251770019531,-0.3662109375
1534606254.191.5869140625,0.495910644531,-0.54931640625
1534606254.191.57928466797,0.885009765625,-0.343322753906
1534606254.191.42669677734,0.663757324219,-0.3662109375
1534606254.21.26647949219,0.595092773438,-0.503540039062
1534606254.21.54113769531,0.701904296875,-0.289916992188
1534606254.21.77764892578,0.862121582031,-0.335693359375
1534606254.21.48773193359,0.740051269531,-0.18310546875
1534606254.21.53350830078,0.724792480469,-0.3662109375
1534606254.21.64031982422,0.717163085938,-0.473022460938
1534606254.211.51062011719,0.67138671875,-0.282287597656
1534606254.211.38854980469,0.511169433594,-0.335693359375
