CSV format: Accelerometer x value, acclerometer y value, accelerometer z value, gyroscope x value, gyroscope y value, gyroscope z value
Sample frequency: 100Hz
1534528727.720.88232421875,-0.503662109375,0.04541015625,1.45721435547,0.297546386719,-0.67138671875
1534528727.720.8818359375,-0.50341796875,0.044189453125,1.45721435547,0.778198242188,-0.381469726562
1534528727.720.881591796875,-0.502197265625,0.045654296875,1.65557861328,0.862121582031,-0.312805175781
1534528727.720.88232421875,-0.500244140625,0.04443359375,1.71661376953,0.648498535156,-0.289916992188
1534528727.720.88037109375,-0.501220703125,0.0380859375,1.71661376953,0.381469726562,-0.411987304688
1534528727.720.881103515625,-0.502197265625,0.040771484375,1.53350830078,0.617980957031,-0.617980957031
1534528727.730.883544921875,-0.50244140625,0.043212890625,1.48010253906,0.396728515625,-0.511169433594
1534528727.730.88037109375,-0.501220703125,0.046630859375,1.51824951172,0.457763671875,-0.228881835938
1534528727.730.876220703125,-0.504150390625,0.041015625,1.49536132812,0.198364257812,-0.289916992188
1534528727.730.8798828125,-0.50341796875,0.042236328125,1.48773193359,0.54931640625,-0.3662109375
1534528727.730.882080078125,-0.50244140625,0.046630859375,1.52587890625,0.572204589844,-0.442504882812
1534528727.730.87841796875,-0.50244140625,0.04931640625,1.44958496094,0.320434570312,-0.396728515625
1534528727.730.876953125,-0.50146484375,0.05029296875,1.51824951172,0.228881835938,-0.221252441406
1534528727.740.8779296875,-0.49951171875,0.047119140625,1.35040283203,0.495910644531,-0.205993652344
1534528727.740.8759765625,-0.503173828125,0.047119140625,1.60980224609,0.556945800781,-0.282287597656
1534528727.740.875,-0.5,0.04541015625,1.64031982422,0.457763671875,-0.259399414062
1534528727.740.879638671875,-0.500732421875,0.048828125,1.44958496094,0.595092773438,-0.0839233398438
1534528727.740.879638671875,-0.50048828125,0.041748046875,1.61743164062,0.663757324219,-0.18310546875
1534528727.740.878662109375,-0.50048828125,0.0439453125,1.71661376953,0.640869140625,-0.282287597656
1534528727.740.879638671875,-0.503662109375,0.042236328125,1.64794921875,0.381469726562,-0.473022460938
1534528727.750.87939453125,-0.50439453125,0.04296875,1.43432617188,0.297546386719,-0.343322753906
1534528727.750.88037109375,-0.498291015625,0.043212890625,1.54876708984,0.457763671875,-0.396728515625
1534528727.750.8779296875,-0.496826171875,0.04296875,1.48010253906,0.54931640625,-0.389099121094
1534528727.750.8798828125,-0.500732421875,0.0419921875,1.76239013672,0.740051269531,-0.411987304688
1534528727.760.880859375,-0.503662109375,0.045654296875,1.75476074219,0.503540039062,-0.328063964844
1534528727.760.879638671875,-0.50341796875,0.049560546875,1.45721435547,0.244140625,-0.259399414062
1534528727.760.876220703125,-0.50537109375,0.045166015625,1.5869140625,0.328063964844,-0.396728515625
1534528727.760.88232421875,-0.50341796875,0.044189453125,1.57165527344,0.595092773438,-0.755310058594
1534528727.760.886474609375,-0.503662109375,0.04931640625,1.708984375,0.640869140625,-0.503540039062
1534528727.760.8798828125,-0.503173828125,0.04736328125,1.64031982422,0.625610351562,-0.282287597656
1534528727.760.875732421875,-0.5068359375,0.047119140625,1.76239013672,0.709533691406,-0.350952148438
1534528727.760.87451171875,-0.502197265625,0.04638671875,1.61743164062,0.808715820312,-0.389099121094
1534528727.770.8779296875,-0.50048828125,0.044189453125,1.64794921875,0.686645507812,-0.633239746094
1534528727.770.879150390625,-0.4990234375,0.039794921875,1.55639648438,0.686645507812,-0.762939453125
1534528727.770.8837890625,-0.504150390625,0.04296875,1.41143798828,0.389099121094,-0.663757324219
1534528727.770.8818359375,-0.50537109375,0.04736328125,1.54113769531,0.137329101562,-0.335693359375
1534528727.770.88330078125,-0.502685546875,0.048095703125,1.61743164062,0.404357910156,-0.244140625
1534528727.770.883544921875,-0.500732421875,0.049560546875,1.57165527344,0.587463378906,-0.617980957031
1534528727.780.880615234375,-0.501953125,0.049072265625,1.57928466797,1.01470947266,-0.91552734375
1534528727.780.8818359375,-0.501220703125,0.046875,1.41906738281,0.91552734375,-0.625610351562
1534528727.780.8896484375,-0.504638671875,0.052734375,1.953125,0.434875488281,-0.381469726562
1534528727.780.88671875,-0.50830078125,0.048095703125,1.40380859375,0.495910644531,-0.67138671875
1534528727.780.885009765625,-0.50732421875,0.04248046875,1.74713134766,0.694274902344,-0.999450683594
1534528727.790.882568359375,-0.5068359375,0.0478515625,1.48010253906,0.373840332031,-0.595092773438
1534528727.790.880126953125,-0.499755859375,0.05078125,1.57928466797,0.434875488281,-0.389099121094
1534528727.790.881591796875,-0.498779296875,0.050048828125,1.44195556641,0.991821289062,-0.511169433594
1534528727.790.87646484375,-0.507568359375,0.049072265625,1.54876708984,1.02996826172,-0.587463378906
1534528727.790.87939453125,-0.505615234375,0.047607421875,1.62506103516,0.518798828125,-0.465393066406
1534528727.790.883544921875,-0.50341796875,0.04638671875,1.43432617188,0.297546386719,-0.6103515625
1534528727.790.882568359375,-0.503173828125,0.049560546875,1.35803222656,0.526428222656,-0.633239746094
1534528727.790.879638671875,-0.503662109375,0.05224609375,1.51062011719,0.694274902344,-0.434875488281
1534528727.80.8798828125,-0.5048828125,0.0517578125,1.75476074219,0.587463378906,-0.625610351562
1534528727.80.88037109375,-0.504150390625,0.047607421875,1.62506103516,0.282287597656,-0.534057617188
1534528727.80.8828125,-0.499755859375,0.055908203125,1.35040283203,0.419616699219,-0.312805175781
1534528727.80.8779296875,-0.50244140625,0.05078125,1.82342529297,0.434875488281,-0.30517578125
1534528727.80.880859375,-0.50634765625,0.04638671875,1.80053710938,0.42724609375,-0.160217285156
1534528727.80.882080078125,-0.50341796875,0.0478515625,1.41906738281,0.503540039062,-0.328063964844
1534528727.80.880859375,-0.505615234375,0.049072265625,1.46484375,0.54931640625,-0.419616699219
1534528727.810.884033203125,-0.50390625,0.05029296875,1.72424316406,0.518798828125,-0.267028808594
1534528727.810.882568359375,-0.500732421875,0.04833984375,1.73187255859,0.862121582031,-0.06103515625
1534528727.810.88037109375,-0.49755859375,0.04736328125,1.38854980469,0.625610351562,-0.251770019531
1534528727.810.880126953125,-0.498779296875,0.05029296875,1.44958496094,0.419616699219,-0.312805175781
1534528727.810.879150390625,-0.499267578125,0.04931640625,1.38092041016,0.747680664062,-0.114440917969
1534528727.820.881103515625,-0.500732421875,0.046875,1.33514404297,0.511169433594,-0.236511230469
1534528727.820.87841796875,-0.4990234375,0.048828125,1.33514404297,0.3662109375,-0.358581542969
1534528727.820.87890625,-0.498779296875,0.0419921875,1.43432617188,0.389099121094,-0.434875488281
1534528727.820.878173828125,-0.50048828125,0.040283203125,1.57928466797,0.274658203125,-0.404357910156
1534528727.820.876953125,-0.50146484375,0.04833984375,1.47247314453,0.167846679688,-0.335693359375
1534528727.820.875732421875,-0.50439453125,0.05078125,1.41143798828,0.419616699219,-0.251770019531
1534528727.820.87646484375,-0.50048828125,0.04248046875,1.47247314453,0.762939453125,-0.259399414062
1534528727.820.879638671875,-0.500244140625,0.041748046875,1.55639648438,0.572204589844,-0.434875488281
1534528727.820.88037109375,-0.501708984375,0.043212890625,1.62506103516,0.396728515625,-0.389099121094
1534528727.830.880859375,-0.50439453125,0.04052734375,1.56402587891,0.198364257812,-0.3662109375
1534528727.830.8779296875,-0.502685546875,0.03759765625,1.54113769531,0.617980957031,-0.259399414062
1534528727.830.87646484375,-0.502685546875,0.04443359375,1.57928466797,0.381469726562,-0.312805175781
1534528727.830.87890625,-0.501708984375,0.0458984375,1.49536132812,0.00762939453125,-0.167846679688
1534528727.830.880126953125,-0.501220703125,0.047607421875,1.35803222656,0.18310546875,-0.343322753906
1534528727.830.88134765625,-0.502197265625,0.048583984375,1.36566162109,0.3662109375,-0.373840332031
1534528727.830.8818359375,-0.50390625,0.052734375,1.708984375,0.267028808594,-0.335693359375
1534528727.840.881103515625,-0.50634765625,0.047119140625,1.67846679688,0.419616699219,-0.259399414062
1534528727.840.879638671875,-0.499267578125,0.05029296875,1.57165527344,0.335693359375,-0.396728515625
1534528727.840.881591796875,-0.501953125,0.04296875,1.56402587891,0.198364257812,-0.701904296875
1534528727.840.88134765625,-0.5048828125,0.044677734375,1.3427734375,0.67138671875,-0.785827636719
1534528727.840.88525390625,-0.5068359375,0.04248046875,1.31988525391,0.541687011719,-0.495910644531
1534528727.850.881103515625,-0.506103515625,0.040771484375,1.44958496094,0.328063964844,-0.274658203125
1534528727.850.882568359375,-0.50244140625,0.0400390625,1.47247314453,0.213623046875,-0.320434570312
1534528727.850.879638671875,-0.502685546875,0.038818359375,1.55639648438,0.564575195312,-0.511169433594
1534528727.850.876708984375,-0.506103515625,0.042236328125,1.53350830078,0.701904296875,-0.839233398438
1534528727.850.879638671875,-0.505126953125,0.042724609375,1.56402587891,0.617980957031,-0.694274902344
1534528727.850.883056640625,-0.50146484375,0.049072265625,1.50299072266,0.595092773438,-0.6103515625
1534528727.850.882080078125,-0.501708984375,0.050537109375,1.50299072266,0.373840332031,-0.541687011719
1534528727.860.882080078125,-0.50244140625,0.0419921875,1.49536132812,1.08337402344,-0.511169433594
1534528727.860.8828125,-0.502685546875,0.044921875,1.64031982422,0.679016113281,-0.373840332031
1534528727.860.8779296875,-0.501953125,0.044677734375,1.73187255859,0.320434570312,-0.205993652344
1534528727.860.87646484375,-0.4990234375,0.0439453125,1.77001953125,0.457763671875,-0.190734863281
1534528727.860.878173828125,-0.5009765625,0.041748046875,1.65557861328,0.48828125,-0.190734863281
1534528727.860.875244140625,-0.501953125,0.045166015625,1.41906738281,0.541687011719,-0.18310546875
1534528727.860.87744140625,-0.498779296875,0.048095703125,1.72424316406,0.42724609375,-0.228881835938
1534528727.860.881103515625,-0.5078125,0.04052734375,1.80816650391,0.595092773438,-0.259399414062
1534528727.870.87841796875,-0.502685546875,0.03955078125,1.89971923828,0.747680664062,-0.473022460938
1534528727.870.878173828125,-0.5029296875,0.0390625,1.78527832031,0.640869140625,-0.244140625
1534528727.870.880126953125,-0.5029296875,0.043701171875,1.56402587891,0.312805175781,0.0534057617188
1534528727.870.881103515625,-0.5,0.04541015625,1.53350830078,0.648498535156,-0.00762939453125
1534528727.870.880859375,-0.5048828125,0.04248046875,1.72424316406,0.564575195312,-0.244140625
1534528727.880.880859375,-0.5078125,0.047607421875,1.63269042969,0.587463378906,-0.205993652344
1534528727.880.879150390625,-0.508056640625,0.04931640625,1.80053710938,0.473022460938,-0.0457763671875
1534528727.880.87841796875,-0.500732421875,0.050048828125,1.89971923828,0.42724609375,-0.259399414062
1534528727.880.877685546875,-0.498779296875,0.04736328125,1.61743164062,0.457763671875,-0.289916992188
1534528727.880.879638671875,-0.502685546875,0.043701171875,1.51824951172,0.396728515625,-0.274658203125
1534528727.880.883056640625,-0.505126953125,0.043212890625,1.42669677734,0.312805175781,-0.167846679688
1534528727.880.878662109375,-0.504150390625,0.041748046875,1.55639648438,0.411987304688,-0.0762939453125
1534528727.880.877197265625,-0.5048828125,0.04638671875,1.61743164062,0.343322753906,-0.213623046875
1534528727.880.8759765625,-0.503662109375,0.04736328125,1.57165527344,0.564575195312,-0.259399414062
1534528727.890.873779296875,-0.50390625,0.0419921875,1.69372558594,0.358581542969,-0.404357910156
1534528727.890.87646484375,-0.5068359375,0.04541015625,1.68609619141,0.381469726562,-0.42724609375
1534528727.890.880615234375,-0.504150390625,0.041015625,1.66320800781,0.396728515625,-0.213623046875
1534528727.890.87646484375,-0.5009765625,0.046142578125,1.35040283203,0.6103515625,-0.18310546875
1534528727.890.8740234375,-0.5009765625,0.046630859375,1.39617919922,0.701904296875,-0.213623046875
1534528727.890.875,-0.502685546875,0.048828125,1.66320800781,0.564575195312,-0.495910644531
1534528727.890.876708984375,-0.50048828125,0.04931640625,1.77001953125,0.411987304688,-0.625610351562
1534528727.90.879150390625,-0.500244140625,0.04638671875,1.64031982422,0.404357910156,-0.579833984375
1534528727.90.879150390625,-0.502197265625,0.048828125,1.63269042969,0.587463378906,-0.755310058594
1534528727.90.882080078125,-0.50732421875,0.047119140625,1.54876708984,0.572204589844,-0.473022460938
1534528727.90.880126953125,-0.500244140625,0.04833984375,1.60217285156,0.495910644531,-0.732421875
1534528727.90.8798828125,-0.5009765625,0.0517578125,1.67083740234,0.770568847656,-0.831604003906
1534528727.910.881103515625,-0.503173828125,0.050048828125,1.60217285156,0.808715820312,-0.778198242188
1534528727.910.88134765625,-0.503173828125,0.0478515625,1.72424316406,0.617980957031,-0.846862792969
1534528727.910.880615234375,-0.50146484375,0.048583984375,1.50299072266,0.785827636719,-0.900268554688
1534528727.910.88134765625,-0.5009765625,0.04833984375,1.41143798828,0.579833984375,-0.999450683594
1534528727.910.88720703125,-0.503173828125,0.047119140625,1.48773193359,0.473022460938,-0.816345214844
1534528727.910.88623046875,-0.502685546875,0.046630859375,1.64794921875,0.534057617188,-0.923156738281
1534528727.910.882568359375,-0.50244140625,0.051513671875,1.61743164062,0.457763671875,-0.946044921875
1534528727.910.87890625,-0.5029296875,0.05419921875,1.37329101562,0.602722167969,-0.999450683594
1534528727.920.880859375,-0.500244140625,0.0537109375,1.77001953125,0.3662109375,-0.9765625
1534528727.920.885009765625,-0.50341796875,0.046142578125,1.708984375,0.724792480469,-0.831604003906
1534528727.920.883056640625,-0.501220703125,0.049072265625,1.62506103516,0.831604003906,-0.755310058594
1534528727.920.880126953125,-0.500732421875,0.050048828125,1.42669677734,0.534057617188,-0.808715820312
1534528727.920.884033203125,-0.49951171875,0.05712890625,1.55639648438,0.724792480469,-0.907897949219
1534528727.920.88525390625,-0.499755859375,0.054931640625,1.63269042969,0.801086425781,-0.900268554688
1534528727.920.884033203125,-0.50048828125,0.055419921875,1.49536132812,0.564575195312,-0.732421875
1534528727.930.881103515625,-0.500732421875,0.050537109375,1.67846679688,0.389099121094,-0.640869140625
1534528727.930.883544921875,-0.500732421875,0.048095703125,1.41906738281,0.762939453125,-0.381469726562
1534528727.930.878173828125,-0.49853515625,0.055419921875,1.64031982422,0.48828125,-0.282287597656
1534528727.930.875,-0.501220703125,0.05078125,1.57165527344,0.541687011719,-0.0381469726562
1534528727.930.879150390625,-0.50146484375,0.047607421875,1.52587890625,0.595092773438,-0.06103515625
1534528727.930.880859375,-0.503173828125,0.049560546875,1.49536132812,0.602722167969,-0.221252441406
1534528727.930.879150390625,-0.5009765625,0.051513671875,1.53350830078,0.572204589844,-0.282287597656
1534528727.940.87939453125,-0.502197265625,0.048828125,1.69372558594,0.534057617188,-0.129699707031
1534528727.940.878662109375,-0.501220703125,0.050537109375,1.61743164062,0.419616699219,0.0534057617188
1534528727.940.880859375,-0.50048828125,0.055419921875,1.57165527344,0.3662109375,0.0381469726562
1534528727.940.877685546875,-0.501708984375,0.048095703125,1.31225585938,0.205993652344,-0.106811523438
1534528727.940.8837890625,-0.50244140625,0.05029296875,1.38854980469,0.251770019531,-0.114440917969
1534528727.950.8828125,-0.5029296875,0.047119140625,1.41143798828,0.42724609375,0.282287597656
1534528727.950.878173828125,-0.500244140625,0.04638671875,1.64794921875,0.373840332031,0.251770019531
1534528727.950.878173828125,-0.499755859375,0.0498046875,1.78527832031,0.0228881835938,-0.114440917969
1534528727.950.88330078125,-0.50244140625,0.04931640625,1.47247314453,0.228881835938,-0.190734863281
1534528727.950.87890625,-0.501220703125,0.054443359375,1.39617919922,0.473022460938,-0.0152587890625
1534528727.950.8798828125,-0.501708984375,0.0498046875,1.39617919922,0.648498535156,-0.0534057617188
1534528727.950.880126953125,-0.505126953125,0.0439453125,1.44195556641,0.48828125,0.0381469726562
1534528727.950.8798828125,-0.502685546875,0.044677734375,1.66320800781,0.350952148438,0.00762939453125
1534528727.960.87890625,-0.49951171875,0.044189453125,1.71661376953,0.3662109375,-0.0686645507812
1534528727.960.8818359375,-0.501708984375,0.04296875,1.52587890625,0.450134277344,-0.396728515625
1534528727.960.88232421875,-0.501953125,0.044189453125,1.27410888672,0.236511230469,-0.106811523438
1534528727.960.882568359375,-0.50146484375,0.044677734375,1.52587890625,0.396728515625,-0.518798828125
1534528727.970.87890625,-0.500732421875,0.041748046875,1.52587890625,0.48828125,-0.663757324219
1534528727.970.877685546875,-0.502197265625,0.0419921875,1.54113769531,0.587463378906,-0.48828125
1534528727.970.88134765625,-0.501220703125,0.037353515625,1.77001953125,0.480651855469,-0.343322753906
1534528727.970.879638671875,-0.50341796875,0.045166015625,1.76239013672,0.442504882812,-0.564575195312
1534528727.970.878173828125,-0.50390625,0.04736328125,1.59454345703,0.373840332031,-0.808715820312
1534528727.970.876708984375,-0.50146484375,0.046875,1.57165527344,0.42724609375,-0.770568847656
1534528727.980.88037109375,-0.50341796875,0.04248046875,1.60217285156,0.465393066406,-0.717163085938
1534528727.980.88232421875,-0.499267578125,0.03857421875,1.60980224609,0.740051269531,-0.892639160156
1534528727.980.879150390625,-0.501953125,0.04052734375,1.54113769531,0.625610351562,-0.999450683594
1534528727.980.88134765625,-0.5048828125,0.044677734375,1.62506103516,0.274658203125,-0.747680664062
1534528727.980.8837890625,-0.50244140625,0.039306640625,1.64794921875,0.465393066406,-0.640869140625
1534528727.980.884033203125,-0.500244140625,0.0361328125,1.55639648438,0.701904296875,-0.457763671875
1534528727.980.88427734375,-0.500244140625,0.0419921875,1.62506103516,0.755310058594,-0.595092773438
1534528727.990.879150390625,-0.502685546875,0.0439453125,1.38092041016,0.694274902344,-0.602722167969
1534528727.990.8798828125,-0.502685546875,0.0439453125,1.41143798828,0.762939453125,-0.732421875
1534528727.990.880615234375,-0.503662109375,0.044921875,1.44195556641,0.778198242188,-0.556945800781
1534528727.990.881103515625,-0.50341796875,0.04443359375,1.53350830078,0.633239746094,-0.42724609375
1534528727.990.880615234375,-0.50390625,0.046142578125,1.61743164062,0.656127929688,-0.663757324219
1534528727.990.879638671875,-0.503662109375,0.04736328125,1.73187255859,0.221252441406,-0.473022460938
1534528727.990.879150390625,-0.50634765625,0.04736328125,1.66320800781,0.350952148438,-0.289916992188
1534528728.00.876708984375,-0.506591796875,0.046630859375,1.57928466797,0.595092773438,-0.282287597656
1534528728.00.877685546875,-0.50732421875,0.04248046875,1.60980224609,0.473022460938,-0.343322753906
1534528728.00.87841796875,-0.5087890625,0.0419921875,1.42669677734,0.289916992188,-0.343322753906
1534528728.00.879150390625,-0.507080078125,0.043701171875,1.71661376953,0.617980957031,-0.152587890625
1534528728.00.87646484375,-0.503173828125,0.042236328125,1.72424316406,0.816345214844,-0.244140625
1534528728.00.877197265625,-0.502197265625,0.04345703125,1.75476074219,0.740051269531,-0.480651855469
1534528728.00.88037109375,-0.50048828125,0.04541015625,1.63269042969,0.503540039062,-0.06103515625
1534528728.010.882568359375,-0.50048828125,0.04443359375,1.8310546875,0.289916992188,-0.1220703125
1534528728.010.87890625,-0.506103515625,0.054443359375,1.70135498047,0.404357910156,-0.320434570312
1534528728.010.87939453125,-0.507080078125,0.050048828125,1.54113769531,0.518798828125,-0.137329101562
1534528728.010.8798828125,-0.507080078125,0.043701171875,1.70135498047,0.701904296875,-0.244140625
1534528728.010.876953125,-0.505859375,0.05224609375,1.5869140625,0.419616699219,-0.404357910156
1534528728.020.882080078125,-0.504638671875,0.050048828125,1.61743164062,0.396728515625,-0.411987304688
1534528728.020.881103515625,-0.505126953125,0.052001953125,1.48010253906,0.595092773438,-0.289916992188
1534528728.020.879150390625,-0.505615234375,0.05029296875,1.42669677734,0.564575195312,-0.389099121094
1534528728.020.8818359375,-0.506103515625,0.04931640625,1.35803222656,0.389099121094,-0.595092773438
1534528728.020.881103515625,-0.504638671875,0.04833984375,1.5869140625,0.267028808594,-0.457763671875
1534528728.020.87841796875,-0.50390625,0.048583984375,1.67846679688,0.450134277344,-0.411987304688
1534528728.020.87841796875,-0.504150390625,0.051513671875,1.54876708984,0.709533691406,-0.434875488281
1534528728.020.87744140625,-0.505126953125,0.04931640625,1.44195556641,0.67138671875,-0.6103515625
1534528728.030.88037109375,-0.500244140625,0.04541015625,1.66320800781,0.450134277344,-0.572204589844
1534528728.030.880126953125,-0.5009765625,0.054931640625,1.67083740234,0.640869140625,-0.595092773438
1534528728.030.88232421875,-0.506103515625,0.055419921875,1.68609619141,0.328063964844,-0.694274902344
1534528728.030.883056640625,-0.509521484375,0.05224609375,1.44958496094,0.419616699219,-0.595092773438
1534528728.030.877685546875,-0.5009765625,0.047607421875,1.57165527344,0.67138671875,-0.3662109375
1534528728.030.876708984375,-0.49951171875,0.05029296875,1.50299072266,0.54931640625,-0.602722167969
1534528728.040.877685546875,-0.4990234375,0.051025390625,1.35040283203,0.511169433594,-0.778198242188
1534528728.040.8798828125,-0.5029296875,0.042724609375,1.53350830078,0.289916992188,-0.778198242188
1534528728.040.882080078125,-0.504638671875,0.0458984375,1.77764892578,0.434875488281,-0.617980957031
1534528728.040.87939453125,-0.500244140625,0.052490234375,1.60980224609,0.846862792969,-0.434875488281
1534528728.040.880615234375,-0.49951171875,0.054931640625,1.52587890625,0.991821289062,-0.67138671875
1534528728.040.8798828125,-0.50048828125,0.053955078125,1.52587890625,0.587463378906,-0.724792480469
1534528728.050.880859375,-0.500732421875,0.0498046875,1.65557861328,0.587463378906,-0.625610351562
1534528728.050.88134765625,-0.49951171875,0.048583984375,1.72424316406,0.579833984375,-0.724792480469
1534528728.050.8798828125,-0.502197265625,0.052490234375,1.51062011719,0.556945800781,-0.679016113281
1534528728.050.880859375,-0.502197265625,0.044189453125,1.20544433594,0.465393066406,-0.732421875
1534528728.050.88232421875,-0.505615234375,0.044189453125,1.26647949219,0.30517578125,-0.709533691406
1534528728.050.883056640625,-0.505126953125,0.045166015625,1.54876708984,0.419616699219,-0.747680664062
1534528728.050.88134765625,-0.50244140625,0.045654296875,1.66320800781,0.389099121094,-0.602722167969
1534528728.050.88037109375,-0.5009765625,0.0458984375,1.53350830078,0.495910644531,-0.709533691406
1534528728.060.881103515625,-0.49951171875,0.0439453125,1.64794921875,0.3662109375,-0.198364257812
1534528728.060.8798828125,-0.50048828125,0.0498046875,1.51062011719,0.541687011719,-0.404357910156
1534528728.060.881103515625,-0.500244140625,0.051025390625,1.54876708984,0.503540039062,-0.251770019531
1534528728.060.879150390625,-0.498779296875,0.047607421875,1.63269042969,0.495910644531,-0.00762939453125
1534528728.070.879150390625,-0.498779296875,0.044677734375,1.59454345703,0.289916992188,-0.152587890625
1534528728.070.880859375,-0.499267578125,0.045166015625,1.62506103516,0.106811523438,-0.259399414062
1534528728.070.8818359375,-0.501708984375,0.047607421875,1.55639648438,0.343322753906,-0.167846679688
1534528728.070.881103515625,-0.504150390625,0.04736328125,1.52587890625,0.602722167969,-0.0228881835938
1534528728.070.8798828125,-0.498291015625,0.044921875,1.63269042969,0.350952148438,0.259399414062
1534528728.070.880126953125,-0.50244140625,0.04638671875,1.57928466797,0.282287597656,0.0534057617188
1534528728.070.879638671875,-0.501708984375,0.0478515625,1.5869140625,0.511169433594,-0.274658203125
1534528728.080.881103515625,-0.50048828125,0.05078125,1.52587890625,0.228881835938,-0.282287597656
1534528728.080.87939453125,-0.498291015625,0.050537109375,1.55639648438,0.335693359375,-0.1220703125
1534528728.080.87939453125,-0.498779296875,0.048828125,1.69372558594,0.251770019531,-0.1220703125
1534528728.080.87841796875,-0.498779296875,0.04541015625,1.59454345703,0.198364257812,-0.297546386719
1534528728.080.8818359375,-0.50048828125,0.041748046875,1.36566162109,0.282287597656,-0.167846679688
1534528728.080.88037109375,-0.50341796875,0.043212890625,1.32751464844,0.450134277344,0.0839233398438
1534528728.080.878662109375,-0.503173828125,0.045654296875,1.49536132812,0.473022460938,-0.0457763671875
1534528728.090.880615234375,-0.50146484375,0.045166015625,1.77001953125,0.175476074219,-0.221252441406
1534528728.090.879638671875,-0.498779296875,0.04541015625,1.48773193359,0.205993652344,-0.350952148438
1534528728.090.87939453125,-0.500732421875,0.046630859375,1.35803222656,0.434875488281,-0.434875488281
1534528728.10.881103515625,-0.502197265625,0.04296875,1.5869140625,0.785827636719,-0.617980957031
1534528728.10.88037109375,-0.502197265625,0.045654296875,1.51062011719,0.572204589844,-0.625610351562
1534528728.10.88037109375,-0.50244140625,0.046875,1.71661376953,0.801086425781,-0.686645507812
1534528728.10.879638671875,-0.5009765625,0.043701171875,1.73187255859,0.79345703125,-0.465393066406
1534528728.110.88134765625,-0.5009765625,0.046875,1.55639648438,0.740051269531,-0.18310546875
1534528728.110.878662109375,-0.50634765625,0.05126953125,1.84631347656,0.495910644531,-0.18310546875
1534528728.110.88232421875,-0.501708984375,0.041748046875,1.38092041016,0.434875488281,-0.434875488281
1534528728.120.88134765625,-0.503173828125,0.041015625,1.47247314453,0.663757324219,-0.389099121094
1534528728.120.87744140625,-0.502197265625,0.046875,1.44958496094,0.442504882812,-0.343322753906
1534528728.120.88232421875,-0.504150390625,0.049072265625,1.60980224609,0.350952148438,-0.396728515625
1534528728.120.881591796875,-0.5029296875,0.045166015625,1.77001953125,0.404357910156,-0.434875488281
1534528728.130.88037109375,-0.50537109375,0.0458984375,1.54876708984,0.42724609375,-0.297546386719
1534528728.130.87744140625,-0.505859375,0.045654296875,1.49536132812,0.434875488281,-0.282287597656
1534528728.130.877197265625,-0.50537109375,0.04736328125,1.80053710938,0.534057617188,-0.274658203125
1534528728.130.878662109375,-0.504638671875,0.048828125,1.31988525391,0.450134277344,-0.289916992188
1534528728.140.88037109375,-0.5029296875,0.049560546875,1.44958496094,0.48828125,-0.259399414062
1534528728.140.882080078125,-0.5068359375,0.04443359375,1.57928466797,0.694274902344,-0.30517578125
1534528728.140.879638671875,-0.5009765625,0.0517578125,1.43432617188,0.434875488281,-0.572204589844
1534528728.140.880859375,-0.504150390625,0.05126953125,1.61743164062,0.617980957031,-0.8544921875
1534528728.150.880859375,-0.503173828125,0.048583984375,1.64031982422,0.450134277344,-0.686645507812
1534528728.150.878662109375,-0.507568359375,0.047119140625,1.51824951172,0.694274902344,-0.473022460938
1534528728.150.88037109375,-0.506591796875,0.04541015625,1.51062011719,0.67138671875,-0.541687011719
1534528728.150.882080078125,-0.51025390625,0.05517578125,1.62506103516,0.289916992188,-0.877380371094
1534528728.150.884765625,-0.509033203125,0.05078125,1.75476074219,0.320434570312,-0.900268554688
1534528728.160.8818359375,-0.505859375,0.046142578125,1.65557861328,0.48828125,-0.656127929688
1534528728.160.881103515625,-0.506591796875,0.048583984375,1.50299072266,0.648498535156,-0.42724609375
1534528728.160.878662109375,-0.500244140625,0.046875,1.46484375,0.587463378906,-0.404357910156
1534528728.160.877685546875,-0.501708984375,0.0419921875,1.22833251953,0.686645507812,-0.770568847656
1534528728.160.88134765625,-0.50439453125,0.0498046875,1.62506103516,0.900268554688,-0.823974609375
1534528728.160.88330078125,-0.503662109375,0.0478515625,1.41906738281,0.48828125,-0.762939453125
1534528728.160.883544921875,-0.50439453125,0.048095703125,1.48773193359,0.42724609375,-0.663757324219
1534528728.170.88037109375,-0.5029296875,0.045654296875,1.64794921875,0.457763671875,-0.701904296875
1534528728.170.88037109375,-0.50537109375,0.04248046875,1.57165527344,0.465393066406,-0.251770019531
1534528728.170.880615234375,-0.500244140625,0.049560546875,1.78527832031,0.396728515625,-0.274658203125
1534528728.170.877685546875,-0.5,0.049072265625,1.59454345703,0.572204589844,-0.205993652344
1534528728.170.87939453125,-0.504150390625,0.048583984375,1.44195556641,0.373840332031,-0.274658203125
1534528728.170.88037109375,-0.50146484375,0.051025390625,1.49536132812,0.457763671875,-0.473022460938
1534528728.170.876708984375,-0.5029296875,0.047119140625,1.38092041016,0.297546386719,-0.495910644531
1534528728.180.880615234375,-0.506103515625,0.042724609375,1.47247314453,0.480651855469,-0.495910644531
1534528728.180.880126953125,-0.50390625,0.04248046875,1.64794921875,0.320434570312,-0.350952148438
1534528728.180.881591796875,-0.50048828125,0.0478515625,1.52587890625,0.450134277344,-0.572204589844
1534528728.180.882080078125,-0.5,0.046630859375,1.40380859375,0.48828125,-0.457763671875
1534528728.180.8818359375,-0.4990234375,0.04833984375,1.52587890625,0.465393066406,-0.274658203125
1534528728.190.880615234375,-0.501708984375,0.052734375,1.35803222656,0.373840332031,-0.312805175781
1534528728.190.8798828125,-0.498779296875,0.048583984375,1.25885009766,0.343322753906,-0.358581542969
1534528728.190.879150390625,-0.497802734375,0.049560546875,1.32751464844,0.633239746094,-0.411987304688
1534528728.190.880615234375,-0.499755859375,0.050048828125,1.48010253906,0.320434570312,-0.396728515625
1534528728.190.880615234375,-0.49755859375,0.04931640625,1.51062011719,0.3662109375,-0.343322753906
1534528728.190.879150390625,-0.49658203125,0.051025390625,1.44958496094,0.465393066406,-0.251770019531
1534528728.190.879150390625,-0.501708984375,0.04931640625,1.61743164062,0.320434570312,-0.251770019531
1534528728.20.88232421875,-0.499267578125,0.04638671875,1.64794921875,0.274658203125,-0.373840332031
1534528728.20.87841796875,-0.5,0.04638671875,1.46484375,0.373840332031,-0.495910644531
1534528728.20.87841796875,-0.5009765625,0.046875,1.28936767578,0.274658203125,-0.465393066406
1534528728.20.88037109375,-0.50244140625,0.041748046875,1.55639648438,0.297546386719,-0.587463378906
1534528728.20.8818359375,-0.501220703125,0.043701171875,1.64794921875,0.587463378906,-0.419616699219
1534528728.20.87890625,-0.500244140625,0.05029296875,1.56402587891,0.495910644531,-0.312805175781
1534528728.20.880126953125,-0.502197265625,0.052001953125,1.61743164062,0.511169433594,-0.411987304688
1534528728.20.882080078125,-0.50244140625,0.051513671875,1.38092041016,0.79345703125,-0.534057617188
1534528728.210.883544921875,-0.4990234375,0.044921875,1.68609619141,0.389099121094,-0.534057617188
1534528728.210.88134765625,-0.50146484375,0.047119140625,1.61743164062,0.434875488281,-0.564575195312
1534528728.210.88134765625,-0.499755859375,0.049072265625,1.63269042969,0.473022460938,-0.556945800781
1534528728.210.882568359375,-0.50390625,0.04638671875,1.69372558594,0.701904296875,-0.54931640625
1534528728.210.88232421875,-0.5,0.0419921875,1.39617919922,0.48828125,-0.457763671875
1534528728.210.88330078125,-0.499267578125,0.042724609375,1.35040283203,0.556945800781,-0.457763671875
1534528728.220.87841796875,-0.501953125,0.0478515625,1.51062011719,0.480651855469,-0.686645507812
1534528728.220.87890625,-0.50244140625,0.052001953125,1.80053710938,0.526428222656,-0.740051269531
1534528728.220.880859375,-0.50244140625,0.048828125,1.73950195312,0.541687011719,-0.663757324219
1534528728.220.884033203125,-0.504150390625,0.044677734375,1.47247314453,0.663757324219,-0.67138671875
1534528728.220.886962890625,-0.5029296875,0.043701171875,1.68609619141,0.495910644531,-0.480651855469
1534528728.220.885498046875,-0.50537109375,0.0390625,1.55639648438,0.701904296875,-0.518798828125
1534528728.230.880615234375,-0.50244140625,0.043212890625,1.62506103516,0.740051269531,-0.236511230469
1534528728.230.879150390625,-0.501220703125,0.039794921875,1.70135498047,0.595092773438,-0.358581542969
1534528728.230.88330078125,-0.503662109375,0.039794921875,1.71661376953,0.381469726562,-0.3662109375
1534528728.230.883056640625,-0.500732421875,0.044921875,1.68609619141,0.495910644531,-0.267028808594
1534528728.230.88427734375,-0.500732421875,0.04541015625,1.57928466797,0.534057617188,0.0152587890625
1534528728.230.8837890625,-0.50146484375,0.04541015625,1.67846679688,0.434875488281,-0.221252441406
1534528728.230.880126953125,-0.50146484375,0.04638671875,1.74713134766,0.434875488281,-0.335693359375
1534528728.230.8779296875,-0.50244140625,0.044189453125,1.8310546875,0.6103515625,-0.091552734375
1534528728.240.878662109375,-0.501220703125,0.0400390625,1.708984375,0.556945800781,-0.114440917969
1534528728.240.87841796875,-0.501220703125,0.04150390625,1.66320800781,0.465393066406,-0.106811523438
1534528728.240.88037109375,-0.50244140625,0.047119140625,1.55639648438,0.511169433594,-0.0534057617188
1534528728.240.87890625,-0.498291015625,0.04296875,1.71661376953,0.541687011719,-0.228881835938
1534528728.240.875,-0.5,0.051513671875,1.72424316406,0.450134277344,-0.091552734375
1534528728.250.880859375,-0.501708984375,0.04248046875,1.66320800781,0.541687011719,-0.030517578125
1534528728.250.8798828125,-0.501708984375,0.044921875,1.61743164062,0.663757324219,-0.0457763671875
1534528728.250.87890625,-0.501953125,0.050537109375,1.54876708984,0.747680664062,-0.228881835938
1534528728.260.875,-0.49951171875,0.045166015625,1.75476074219,0.30517578125,-0.0762939453125
1534528728.270.8837890625,-0.50537109375,0.05126953125,1.50299072266,0.312805175781,-0.625610351562
1534528728.270.879150390625,-0.50341796875,0.03955078125,1.28173828125,0.48828125,-0.686645507812
1534528728.270.8779296875,-0.501953125,0.046875,1.86157226562,0.648498535156,-0.648498535156
1534528728.270.884033203125,-0.5048828125,0.042236328125,1.85394287109,0.846862792969,-0.587463378906
1534528728.280.883056640625,-0.507568359375,0.0419921875,1.5869140625,0.648498535156,-0.640869140625
1534528728.280.8837890625,-0.506591796875,0.046875,1.63269042969,0.694274902344,-0.709533691406
1534528728.280.87890625,-0.504638671875,0.044677734375,1.87683105469,0.511169433594,-0.48828125
1534528728.290.876220703125,-0.504150390625,0.048828125,1.63269042969,1.05285644531,-0.297546386719
1534528728.290.8798828125,-0.508056640625,0.046630859375,1.44958496094,0.701904296875,-0.228881835938
1534528728.290.877685546875,-0.508056640625,0.045654296875,1.51062011719,0.328063964844,-0.534057617188
1534528728.30.8779296875,-0.506591796875,0.051513671875,1.35040283203,0.602722167969,-0.251770019531
1534528728.30.877197265625,-0.50048828125,0.0478515625,1.31225585938,0.511169433594,-0.213623046875
1534528728.30.8759765625,-0.501220703125,0.04736328125,1.53350830078,0.587463378906,-0.328063964844
1534528728.310.877685546875,-0.500732421875,0.044921875,1.57165527344,0.167846679688,-0.312805175781
1534528728.310.883056640625,-0.502685546875,0.045166015625,1.48773193359,0.328063964844,-0.175476074219
1534528728.310.880859375,-0.499267578125,0.05078125,1.60217285156,0.511169433594,-0.274658203125
1534528728.320.877685546875,-0.49951171875,0.049560546875,1.59454345703,0.511169433594,-0.343322753906
1534528728.320.874755859375,-0.50146484375,0.05029296875,1.51062011719,0.411987304688,-0.30517578125
1534528728.320.87841796875,-0.500732421875,0.055908203125,1.44195556641,0.259399414062,-0.343322753906
1534528728.320.8818359375,-0.5,0.052490234375,1.35803222656,0.358581542969,-0.350952148438
1534528728.330.8818359375,-0.50244140625,0.0419921875,1.56402587891,0.457763671875,-0.640869140625
1534528728.330.88427734375,-0.503662109375,0.047607421875,1.48773193359,0.617980957031,-0.8544921875
1534528728.330.880615234375,-0.502685546875,0.04345703125,1.50299072266,0.595092773438,-0.816345214844
1534528728.330.881591796875,-0.501708984375,0.047607421875,1.28173828125,0.54931640625,-0.640869140625
1534528728.340.882080078125,-0.49853515625,0.04345703125,1.57165527344,0.3662109375,-0.518798828125
1534528728.340.883544921875,-0.502685546875,0.039306640625,1.54876708984,0.244140625,-0.823974609375
1534528728.340.8857421875,-0.499755859375,0.041015625,1.55639648438,0.541687011719,-0.732421875
1534528728.350.88427734375,-0.501708984375,0.046875,1.69372558594,0.694274902344,-0.251770019531
1534528728.360.879150390625,-0.503173828125,0.04736328125,1.45721435547,0.54931640625,-0.282287597656
1534528728.360.881103515625,-0.50341796875,0.043701171875,1.72424316406,0.473022460938,-0.0457763671875
1534528728.370.8779296875,-0.5009765625,0.047119140625,1.60980224609,0.587463378906,-0.0534057617188
1534528728.370.878662109375,-0.499267578125,0.044921875,1.28173828125,0.411987304688,-0.0152587890625
1534528728.380.880615234375,-0.503173828125,0.044189453125,1.36566162109,0.312805175781,-0.167846679688
1534528728.380.8779296875,-0.504150390625,0.04296875,1.43432617188,0.42724609375,0.0686645507812
1534528728.380.879638671875,-0.503662109375,0.048828125,1.65557861328,0.579833984375,-0.358581542969
1534528728.380.8798828125,-0.501953125,0.051513671875,1.64794921875,0.656127929688,-0.350952148438
1534528728.380.880615234375,-0.504150390625,0.0537109375,1.71661376953,0.419616699219,-0.228881835938
1534528728.380.88330078125,-0.50341796875,0.048095703125,1.67846679688,0.3662109375,-0.3662109375
1534528728.390.87646484375,-0.501708984375,0.0390625,1.49536132812,0.42724609375,-0.541687011719
1534528728.390.876708984375,-0.50244140625,0.03955078125,1.52587890625,0.389099121094,-0.534057617188
1534528728.390.88134765625,-0.508056640625,0.04736328125,1.54113769531,0.297546386719,-0.808715820312
1534528728.390.883544921875,-0.504150390625,0.044677734375,1.48773193359,0.450134277344,-0.839233398438
1534528728.390.882568359375,-0.503662109375,0.048095703125,1.67083740234,0.701904296875,-0.617980957031
1534528728.40.88232421875,-0.505126953125,0.04638671875,1.49536132812,0.694274902344,-0.953674316406
1534528728.40.88037109375,-0.504150390625,0.047607421875,1.77001953125,0.358581542969,-0.785827636719
1534528728.40.88232421875,-0.506591796875,0.0537109375,1.57165527344,0.534057617188,-0.747680664062
1534528728.410.88134765625,-0.507080078125,0.04443359375,1.77764892578,0.709533691406,-0.823974609375
1534528728.410.878662109375,-0.50537109375,0.049072265625,1.96075439453,0.846862792969,-0.686645507812
1534528728.410.88330078125,-0.508056640625,0.048828125,1.56402587891,0.518798828125,-0.465393066406
1534528728.410.8798828125,-0.5029296875,0.049072265625,1.51062011719,0.465393066406,-0.503540039062
1534528728.410.87890625,-0.505126953125,0.044677734375,1.71661376953,0.640869140625,-0.450134277344
1534528728.410.87939453125,-0.502197265625,0.05029296875,1.48010253906,0.526428222656,-0.518798828125
1534528728.420.879638671875,-0.502685546875,0.052001953125,1.51824951172,0.724792480469,-0.289916992188
1534528728.420.879638671875,-0.50732421875,0.052001953125,1.47247314453,0.663757324219,-0.106811523438
1534528728.420.879150390625,-0.50537109375,0.04638671875,1.72424316406,0.534057617188,-0.0762939453125
1534528728.430.878173828125,-0.49951171875,0.04248046875,1.28936767578,0.625610351562,-0.190734863281
1534528728.430.875244140625,-0.504638671875,0.048095703125,1.36566162109,0.572204589844,-0.144958496094
1534528728.430.877197265625,-0.50390625,0.048583984375,1.61743164062,0.358581542969,-0.0534057617188
1534528728.430.8798828125,-0.502685546875,0.046875,1.57165527344,0.152587890625,-0.129699707031
1534528728.430.882080078125,-0.50146484375,0.04638671875,1.60217285156,0.190734863281,-0.343322753906
1534528728.430.883056640625,-0.502197265625,0.04541015625,1.70135498047,0.48828125,-0.411987304688
1534528728.430.8828125,-0.501220703125,0.04736328125,1.72424316406,0.320434570312,-0.381469726562
1534528728.430.879150390625,-0.504638671875,0.041259765625,1.54113769531,0.350952148438,-0.289916992188
1534528728.440.879150390625,-0.504150390625,0.044189453125,1.33514404297,0.274658203125,-0.190734863281
1534528728.440.879150390625,-0.50390625,0.051025390625,1.43432617188,0.297546386719,-0.175476074219
1534528728.440.877685546875,-0.50244140625,0.049072265625,1.32751464844,0.457763671875,-0.556945800781
1534528728.440.8828125,-0.501708984375,0.0478515625,1.44958496094,0.572204589844,-0.434875488281
1534528728.440.88330078125,-0.502197265625,0.046630859375,1.50299072266,0.373840332031,-0.595092773438
1534528728.450.87939453125,-0.501953125,0.0419921875,1.52587890625,0.274658203125,-0.587463378906
1534528728.450.876953125,-0.503173828125,0.038818359375,1.60980224609,0.396728515625,-0.701904296875
1534528728.450.88037109375,-0.501220703125,0.040771484375,1.82342529297,0.679016113281,-0.839233398438
1534528728.450.882568359375,-0.50390625,0.047607421875,1.77764892578,0.808715820312,-0.823974609375
1534528728.450.883056640625,-0.505615234375,0.0478515625,1.46484375,0.747680664062,-0.617980957031
1534528728.450.88232421875,-0.50341796875,0.0478515625,1.65557861328,0.602722167969,-0.701904296875
1534528728.450.88330078125,-0.50390625,0.050048828125,1.5869140625,0.419616699219,-0.816345214844
1534528728.460.880859375,-0.50244140625,0.048828125,1.60217285156,0.823974609375,-0.907897949219
1534528728.460.88525390625,-0.50146484375,0.045166015625,1.45721435547,0.946044921875,-0.54931640625
1534528728.460.884765625,-0.503173828125,0.04443359375,1.54113769531,0.511169433594,-0.54931640625
1534528728.470.882080078125,-0.50048828125,0.04736328125,1.62506103516,0.297546386719,-0.701904296875
1534528728.470.880859375,-0.502197265625,0.04736328125,1.68609619141,0.419616699219,-0.465393066406
1534528728.470.884521484375,-0.5029296875,0.046630859375,1.64031982422,0.579833984375,-0.54931640625
1534528728.470.880859375,-0.5009765625,0.04931640625,1.56402587891,0.625610351562,-0.495910644531
1534528728.470.87841796875,-0.499755859375,0.04931640625,1.93023681641,0.740051269531,-0.389099121094
1534528728.470.8779296875,-0.499755859375,0.044677734375,1.47247314453,0.404357910156,-0.175476074219
1534528728.470.876708984375,-0.497802734375,0.046875,1.56402587891,0.473022460938,-0.175476074219
1534528728.480.876953125,-0.502197265625,0.044921875,1.59454345703,0.389099121094,-0.373840332031
1534528728.480.882080078125,-0.49658203125,0.048095703125,1.68609619141,0.373840332031,-0.518798828125
1534528728.480.8798828125,-0.49853515625,0.044921875,1.60980224609,0.297546386719,-0.18310546875
1534528728.480.8798828125,-0.501220703125,0.0458984375,1.64031982422,0.54931640625,-0.06103515625
1534528728.480.88037109375,-0.500244140625,0.048828125,1.5869140625,0.480651855469,-0.137329101562
1534528728.480.880126953125,-0.501953125,0.042236328125,1.33514404297,0.480651855469,-0.267028808594
1534528728.490.878173828125,-0.501220703125,0.051513671875,1.69372558594,0.740051269531,0.152587890625
1534528728.490.881591796875,-0.50146484375,0.046630859375,1.77001953125,0.228881835938,0.137329101562
1534528728.490.8740234375,-0.500732421875,0.04248046875,1.66320800781,0.289916992188,0.0762939453125
1534528728.490.88134765625,-0.5029296875,0.040771484375,1.61743164062,0.396728515625,-0.205993652344
1534528728.50.8837890625,-0.5029296875,0.041259765625,1.56402587891,0.457763671875,-0.0534057617188
1534528728.50.877197265625,-0.499755859375,0.044189453125,1.64031982422,0.54931640625,0.0686645507812
1534528728.50.88134765625,-0.5029296875,0.04931640625,1.68609619141,0.411987304688,-0.167846679688
1534528728.50.879150390625,-0.504150390625,0.04150390625,1.32751464844,0.198364257812,-0.328063964844
1534528728.50.88330078125,-0.506103515625,0.042236328125,1.31988525391,0.320434570312,-0.190734863281
1534528728.50.880615234375,-0.50537109375,0.044189453125,1.39617919922,0.358581542969,-0.312805175781
1534528728.510.87939453125,-0.50390625,0.04443359375,1.51062011719,0.656127929688,-0.312805175781
1534528728.510.8818359375,-0.50634765625,0.05322265625,1.55639648438,0.656127929688,-0.480651855469
1534528728.510.87890625,-0.50537109375,0.048095703125,1.64031982422,0.30517578125,-0.564575195312
1534528728.510.880126953125,-0.505615234375,0.050537109375,1.82342529297,0.686645507812,-0.625610351562
1534528728.520.87890625,-0.501708984375,0.04931640625,1.71661376953,0.709533691406,-0.663757324219
1534528728.520.87939453125,-0.50341796875,0.046875,1.68609619141,0.602722167969,-0.602722167969
1534528728.520.879150390625,-0.503173828125,0.048828125,1.79290771484,0.67138671875,-0.534057617188
1534528728.520.880126953125,-0.5029296875,0.047607421875,1.76239013672,0.732421875,-0.747680664062
1534528728.520.881103515625,-0.5068359375,0.04443359375,1.48010253906,0.640869140625,-0.541687011719
1534528728.530.880859375,-0.5029296875,0.04541015625,1.86157226562,0.640869140625,-0.526428222656
1534528728.530.8837890625,-0.50537109375,0.048095703125,1.60980224609,0.633239746094,-0.534057617188
1534528728.530.883544921875,-0.505126953125,0.046875,1.71661376953,0.503540039062,-0.419616699219
1534528728.530.875244140625,-0.505615234375,0.04736328125,1.69372558594,0.54931640625,-0.419616699219
1534528728.530.88232421875,-0.50341796875,0.048095703125,1.45721435547,0.595092773438,-0.396728515625
1534528728.540.87890625,-0.50634765625,0.04931640625,1.60217285156,0.381469726562,-0.343322753906
1534528728.540.880859375,-0.503173828125,0.04833984375,1.46484375,0.251770019531,-0.358581542969
1534528728.540.88037109375,-0.5029296875,0.049560546875,1.53350830078,0.389099121094,-0.18310546875
1534528728.540.882080078125,-0.504638671875,0.052490234375,1.67846679688,0.251770019531,-0.259399414062
1534528728.540.87939453125,-0.5029296875,0.05029296875,1.56402587891,0.312805175781,-0.312805175781
1534528728.540.878173828125,-0.50439453125,0.044189453125,1.71661376953,0.633239746094,-0.144958496094
1534528728.550.8779296875,-0.505126953125,0.044677734375,1.50299072266,0.328063964844,-0.381469726562
1534528728.550.87744140625,-0.50341796875,0.050537109375,1.37329101562,0.633239746094,-0.274658203125
1534528728.550.8798828125,-0.501708984375,0.05078125,1.73187255859,0.373840332031,-0.328063964844
1534528728.550.876220703125,-0.50146484375,0.052734375,1.39617919922,0.633239746094,-0.259399414062
1534528728.560.879150390625,-0.503662109375,0.051513671875,1.47247314453,0.30517578125,-0.404357910156
1534528728.560.8759765625,-0.504150390625,0.052734375,1.48010253906,0.114440917969,-0.434875488281
1534528728.560.874755859375,-0.50244140625,0.048095703125,1.35803222656,0.221252441406,-0.518798828125
1534528728.560.877685546875,-0.501953125,0.04638671875,1.35040283203,0.373840332031,-0.579833984375
1534528728.560.88037109375,-0.503173828125,0.0458984375,1.39617919922,0.480651855469,-0.396728515625
1534528728.570.87890625,-0.50341796875,0.0380859375,1.42669677734,0.404357910156,-0.473022460938
1534528728.570.880615234375,-0.5068359375,0.042724609375,1.25885009766,0.434875488281,-0.541687011719
1534528728.570.878173828125,-0.503662109375,0.044677734375,1.708984375,0.480651855469,-0.579833984375
1534528728.570.885009765625,-0.5029296875,0.0478515625,1.56402587891,0.411987304688,-0.473022460938
1534528728.570.882568359375,-0.503173828125,0.040283203125,1.71661376953,0.48828125,-0.48828125
1534528728.570.88134765625,-0.504150390625,0.039306640625,1.76239013672,0.625610351562,-0.747680664062
1534528728.580.880615234375,-0.502197265625,0.04541015625,1.57928466797,0.633239746094,-0.701904296875
1534528728.580.88330078125,-0.501220703125,0.049560546875,1.708984375,0.663757324219,-0.732421875
1534528728.580.88427734375,-0.500244140625,0.04931640625,1.57928466797,0.495910644531,-0.862121582031
1534528728.580.883544921875,-0.501220703125,0.05078125,1.54113769531,0.404357910156,-0.762939453125
1534528728.590.88134765625,-0.500244140625,0.0439453125,1.5869140625,0.54931640625,-0.762939453125
1534528728.590.88232421875,-0.5,0.047119140625,1.69372558594,0.556945800781,-0.679016113281
1534528728.590.883056640625,-0.50048828125,0.0458984375,1.79290771484,0.663757324219,-0.534057617188
1534528728.590.88134765625,-0.49951171875,0.043701171875,1.48773193359,0.602722167969,-0.389099121094
1534528728.590.87939453125,-0.49951171875,0.043701171875,1.59454345703,0.724792480469,-0.541687011719
1534528728.590.879638671875,-0.500732421875,0.041259765625,1.41143798828,0.602722167969,-0.48828125
1534528728.60.877197265625,-0.499755859375,0.04931640625,1.46484375,0.6103515625,-0.434875488281
1534528728.60.878173828125,-0.498046875,0.046875,1.54113769531,0.54931640625,-0.42724609375
1534528728.60.87890625,-0.498291015625,0.046142578125,1.41906738281,0.221252441406,-0.457763671875
1534528728.60.8798828125,-0.498291015625,0.0439453125,1.45721435547,0.328063964844,-0.228881835938
1534528728.60.880615234375,-0.501220703125,0.04296875,1.8310546875,0.625610351562,-0.205993652344
1534528728.60.87890625,-0.501708984375,0.044189453125,1.63269042969,0.587463378906,-0.114440917969
1534528728.610.88232421875,-0.5009765625,0.050537109375,1.68609619141,0.404357910156,-0.42724609375
1534528728.610.87841796875,-0.500732421875,0.04150390625,1.47247314453,0.6103515625,-0.030517578125
1534528728.610.879150390625,-0.501953125,0.048583984375,1.59454345703,0.450134277344,0.030517578125
1534528728.610.88427734375,-0.4990234375,0.04150390625,1.59454345703,0.518798828125,-0.091552734375
1534528728.610.881103515625,-0.5048828125,0.046142578125,1.44195556641,0.602722167969,-0.350952148438
1534528728.620.881103515625,-0.503173828125,0.04541015625,1.82342529297,0.473022460938,-0.190734863281
1534528728.620.8818359375,-0.498291015625,0.04150390625,1.74713134766,0.503540039062,-0.198364257812
1534528728.620.87841796875,-0.50244140625,0.054443359375,1.67083740234,0.648498535156,-0.389099121094
1534528728.620.882568359375,-0.498779296875,0.05322265625,1.64794921875,0.617980957031,-0.274658203125
1534528728.630.881103515625,-0.50244140625,0.0537109375,1.47247314453,0.595092773438,-0.251770019531
1534528728.630.8798828125,-0.50146484375,0.05029296875,1.44958496094,0.503540039062,-0.434875488281
1534528728.630.87939453125,-0.506103515625,0.050048828125,1.44958496094,0.473022460938,-0.320434570312
1534528728.630.88037109375,-0.504638671875,0.045166015625,1.77764892578,0.679016113281,-0.694274902344
1534528728.640.88427734375,-0.500244140625,0.052001953125,1.708984375,0.770568847656,-0.595092773438
1534528728.640.87939453125,-0.50048828125,0.053466796875,1.67083740234,0.564575195312,-0.679016113281
1534528728.640.87744140625,-0.501708984375,0.05517578125,1.5869140625,0.518798828125,-0.694274902344
1534528728.640.87890625,-0.50048828125,0.047607421875,1.50299072266,0.694274902344,-0.473022460938
1534528728.650.87890625,-0.50341796875,0.045166015625,1.44958496094,0.30517578125,-0.709533691406
1534528728.650.880126953125,-0.50634765625,0.04296875,1.5869140625,0.373840332031,-0.701904296875
1534528728.650.879638671875,-0.504638671875,0.04736328125,1.57165527344,0.564575195312,-0.473022460938
1534528728.650.88134765625,-0.5048828125,0.0498046875,1.71661376953,0.686645507812,-0.389099121094
1534528728.650.877685546875,-0.507080078125,0.046875,1.76239013672,0.663757324219,-0.42724609375
1534528728.650.87646484375,-0.505615234375,0.042236328125,1.72424316406,0.686645507812,-0.579833984375
1534528728.650.872314453125,-0.5048828125,0.04248046875,1.56402587891,0.534057617188,-0.686645507812
1534528728.650.873779296875,-0.5048828125,0.04638671875,1.36566162109,0.350952148438,-0.511169433594
1534528728.660.8798828125,-0.50244140625,0.04541015625,1.37329101562,0.526428222656,-0.244140625
1534528728.660.877685546875,-0.501708984375,0.049072265625,1.8310546875,0.442504882812,-0.328063964844
1534528728.660.877197265625,-0.50537109375,0.04833984375,1.93786621094,0.480651855469,-0.1220703125
1534528728.660.876220703125,-0.4990234375,0.04931640625,1.77764892578,0.3662109375,-0.244140625
1534528728.660.879638671875,-0.5009765625,0.047607421875,1.59454345703,0.648498535156,-0.312805175781
1534528728.670.877685546875,-0.507080078125,0.05029296875,1.76239013672,0.350952148438,-0.244140625
1534528728.670.87939453125,-0.500244140625,0.044189453125,1.54113769531,0.3662109375,-0.129699707031
1534528728.670.87939453125,-0.504638671875,0.04248046875,1.44195556641,0.381469726562,-0.0991821289062
1534528728.670.878662109375,-0.50732421875,0.042724609375,1.39617919922,0.30517578125,-0.160217285156
1534528728.670.878173828125,-0.50439453125,0.044189453125,1.62506103516,0.320434570312,-0.480651855469
1534528728.670.877685546875,-0.504638671875,0.046875,1.47247314453,0.419616699219,-0.396728515625
1534528728.680.883544921875,-0.50341796875,0.045654296875,1.51062011719,0.556945800781,-0.373840332031
1534528728.680.8828125,-0.501953125,0.05517578125,1.55639648438,0.640869140625,-0.541687011719
1534528728.680.882568359375,-0.50048828125,0.0498046875,1.57928466797,0.587463378906,-0.663757324219
1534528728.680.882080078125,-0.50048828125,0.044189453125,1.40380859375,0.267028808594,-0.419616699219
1534528728.680.882568359375,-0.5009765625,0.041259765625,1.44195556641,0.282287597656,-0.335693359375
1534528728.680.88134765625,-0.50537109375,0.041748046875,1.54876708984,0.587463378906,-0.457763671875
1534528728.690.8837890625,-0.50634765625,0.042236328125,1.41143798828,0.434875488281,-0.701904296875
1534528728.690.8828125,-0.50439453125,0.0439453125,1.46484375,0.724792480469,-0.450134277344
1534528728.690.8828125,-0.498779296875,0.049072265625,1.60980224609,0.846862792969,-0.3662109375
1534528728.690.880126953125,-0.500732421875,0.048095703125,1.49536132812,0.587463378906,-0.587463378906
1534528728.690.87744140625,-0.502197265625,0.0498046875,1.60980224609,0.495910644531,-0.892639160156
1534528728.690.882568359375,-0.5029296875,0.05126953125,1.41143798828,0.434875488281,-0.740051269531
1534528728.70.882080078125,-0.50439453125,0.0458984375,1.64794921875,0.450134277344,-0.648498535156
1534528728.70.8828125,-0.501953125,0.041748046875,1.66320800781,0.457763671875,-0.259399414062
1534528728.70.87744140625,-0.499267578125,0.050048828125,1.57928466797,0.633239746094,-0.541687011719
1534528728.70.88037109375,-0.49853515625,0.0537109375,1.50299072266,0.617980957031,-0.54931640625
1534528728.70.88232421875,-0.499267578125,0.052734375,1.48010253906,0.534057617188,-0.556945800781
1534528728.710.8798828125,-0.50390625,0.046142578125,1.59454345703,0.579833984375,-0.556945800781
1534528728.710.881591796875,-0.5009765625,0.047607421875,1.55639648438,0.633239746094,-0.709533691406
1534528728.710.880615234375,-0.499755859375,0.046630859375,1.59454345703,0.679016113281,-0.495910644531
1534528728.710.878173828125,-0.5009765625,0.045166015625,1.76239013672,0.885009765625,-0.442504882812
1534528728.710.882568359375,-0.500732421875,0.04443359375,1.46484375,0.755310058594,-0.411987304688
1534528728.710.88330078125,-0.4990234375,0.046142578125,1.51824951172,0.67138671875,-0.503540039062
1534528728.720.879638671875,-0.502685546875,0.045654296875,1.90734863281,0.663757324219,-0.320434570312
1534528728.720.877197265625,-0.499755859375,0.04345703125,1.71661376953,0.686645507812,-0.434875488281
1534528728.720.8798828125,-0.500732421875,0.047119140625,1.61743164062,0.358581542969,-0.457763671875
1534528728.720.884765625,-0.5009765625,0.049072265625,1.51824951172,0.190734863281,-0.289916992188
1534528728.720.879150390625,-0.50439453125,0.043212890625,1.47247314453,0.480651855469,-0.411987304688
1534528728.720.8818359375,-0.499755859375,0.04541015625,1.67083740234,0.617980957031,-0.198364257812
1534528728.720.88037109375,-0.4990234375,0.046875,1.41906738281,0.503540039062,-0.190734863281
1534528728.730.88037109375,-0.500244140625,0.046630859375,1.46484375,0.411987304688,-0.358581542969
1534528728.730.881591796875,-0.500732421875,0.050537109375,1.51062011719,0.411987304688,-0.381469726562
1534528728.730.88330078125,-0.502685546875,0.050048828125,1.708984375,0.640869140625,-0.1220703125
1534528728.730.880859375,-0.50537109375,0.05419921875,1.51062011719,0.328063964844,-0.213623046875
1534528728.730.881103515625,-0.498291015625,0.044921875,1.47247314453,0.244140625,-0.30517578125
1534528728.740.880859375,-0.49951171875,0.046875,1.48773193359,0.457763671875,-0.48828125
1534528728.740.880859375,-0.501220703125,0.048828125,1.53350830078,0.541687011719,-0.473022460938
1534528728.740.880859375,-0.50390625,0.0478515625,1.67083740234,0.3662109375,-0.267028808594
1534528728.740.87939453125,-0.500244140625,0.048095703125,1.45721435547,0.579833984375,-0.320434570312
1534528728.740.8818359375,-0.501953125,0.047119140625,1.41143798828,0.656127929688,-0.442504882812
1534528728.740.881591796875,-0.504150390625,0.041259765625,1.57165527344,0.564575195312,-0.251770019531
1534528728.740.880126953125,-0.504150390625,0.045166015625,1.60217285156,0.54931640625,-0.213623046875
1534528728.740.8818359375,-0.501220703125,0.05078125,1.57165527344,0.450134277344,-0.274658203125
1534528728.740.881591796875,-0.500244140625,0.0478515625,1.55639648438,0.396728515625,-0.289916992188
1534528728.750.884765625,-0.503173828125,0.050537109375,1.60217285156,0.434875488281,-0.450134277344
1534528728.750.88330078125,-0.501708984375,0.0517578125,1.47247314453,0.625610351562,-0.236511230469
1534528728.750.883544921875,-0.503662109375,0.051025390625,1.44958496094,0.473022460938,-0.381469726562
1534528728.750.87890625,-0.50244140625,0.051025390625,1.67083740234,0.48828125,-0.396728515625
1534528728.750.8779296875,-0.502197265625,0.046142578125,1.64031982422,0.480651855469,-0.404357910156
1534528728.750.87939453125,-0.503173828125,0.052490234375,1.71661376953,0.640869140625,-0.48828125
1534528728.760.880859375,-0.49951171875,0.046142578125,1.77764892578,0.724792480469,-0.450134277344
1534528728.760.878173828125,-0.50341796875,0.044677734375,1.40380859375,0.450134277344,-0.167846679688
1534528728.760.882080078125,-0.50341796875,0.045166015625,1.60980224609,0.640869140625,-0.320434570312
1534528728.760.8828125,-0.506103515625,0.0478515625,1.72424316406,0.648498535156,-0.404357910156
1534528728.770.8818359375,-0.504638671875,0.042724609375,1.65557861328,0.602722167969,-0.030517578125
1534528728.770.877685546875,-0.50830078125,0.04833984375,1.53350830078,0.640869140625,-0.251770019531
1534528728.770.87939453125,-0.50732421875,0.049072265625,1.39617919922,0.595092773438,-0.3662109375
1534528728.770.882568359375,-0.501708984375,0.049072265625,1.54876708984,0.541687011719,-0.434875488281
1534528728.770.878662109375,-0.502685546875,0.0478515625,1.68609619141,0.328063964844,-0.221252441406
1534528728.770.877197265625,-0.505126953125,0.048095703125,1.68609619141,0.48828125,-0.282287597656
1534528728.780.877197265625,-0.50439453125,0.044677734375,1.62506103516,0.541687011719,-0.282287597656
1534528728.780.878173828125,-0.505615234375,0.046630859375,1.64794921875,0.343322753906,-0.198364257812
1534528728.780.880615234375,-0.505126953125,0.04736328125,1.61743164062,0.160217285156,-0.343322753906
1534528728.780.883056640625,-0.50244140625,0.046630859375,1.60217285156,0.221252441406,-0.358581542969
1534528728.780.8818359375,-0.505615234375,0.0498046875,1.62506103516,0.511169433594,-0.221252441406
1534528728.780.879638671875,-0.506103515625,0.0478515625,1.71661376953,0.328063964844,-0.137329101562
1534528728.780.87744140625,-0.505615234375,0.046875,1.76239013672,0.205993652344,-0.411987304688
1534528728.780.876953125,-0.504150390625,0.04931640625,1.54113769531,0.328063964844,-0.244140625
1534528728.790.87548828125,-0.50341796875,0.054443359375,1.50299072266,0.503540039062,-0.205993652344
1534528728.790.877197265625,-0.50341796875,0.0517578125,1.44195556641,0.480651855469,-0.205993652344
1534528728.790.87890625,-0.50048828125,0.0498046875,1.49536132812,0.587463378906,-0.30517578125
1534528728.80.880615234375,-0.508056640625,0.048828125,1.38092041016,0.465393066406,-0.411987304688
1534528728.80.8837890625,-0.504638671875,0.052001953125,1.60217285156,0.328063964844,-0.343322753906
1534528728.80.881103515625,-0.50244140625,0.055908203125,1.53350830078,0.54931640625,-0.267028808594
1534528728.80.8798828125,-0.50537109375,0.05322265625,1.70135498047,0.747680664062,-0.556945800781
1534528728.80.87744140625,-0.50390625,0.052001953125,1.25122070312,0.465393066406,-0.541687011719
1534528728.80.879150390625,-0.50390625,0.050537109375,1.41906738281,0.343322753906,-0.457763671875
1534528728.810.879150390625,-0.504638671875,0.05029296875,1.60217285156,0.518798828125,-0.541687011719
1534528728.810.88037109375,-0.5068359375,0.04736328125,1.62506103516,0.617980957031,-0.396728515625
1534528728.810.88232421875,-0.50439453125,0.04541015625,1.64794921875,0.648498535156,-0.518798828125
1534528728.810.878662109375,-0.50537109375,0.04736328125,1.66320800781,0.656127929688,-0.778198242188
1534528728.810.880126953125,-0.501953125,0.044677734375,1.78527832031,0.91552734375,-0.648498535156
1534528728.820.88037109375,-0.503173828125,0.04150390625,1.62506103516,0.778198242188,-0.717163085938
1534528728.820.880859375,-0.502197265625,0.04052734375,1.46484375,0.823974609375,-0.602722167969
1534528728.820.87841796875,-0.50244140625,0.0419921875,1.41143798828,0.770568847656,-0.541687011719
1534528728.820.87890625,-0.501220703125,0.043701171875,1.46484375,0.602722167969,-0.518798828125
1534528728.820.8759765625,-0.498291015625,0.044921875,1.44195556641,0.343322753906,-0.595092773438
1534528728.820.8759765625,-0.4970703125,0.044921875,1.57165527344,0.587463378906,-0.526428222656
1534528728.820.87841796875,-0.5009765625,0.048583984375,1.55639648438,0.785827636719,-0.633239746094
1534528728.820.877197265625,-0.5068359375,0.045166015625,1.54113769531,0.358581542969,-0.633239746094
1534528728.830.879638671875,-0.505126953125,0.049072265625,1.59454345703,0.79345703125,-0.495910644531
1534528728.830.88232421875,-0.502197265625,0.046875,1.28173828125,0.6103515625,-0.236511230469
1534528728.830.880859375,-0.500732421875,0.04541015625,1.64794921875,0.343322753906,-0.251770019531
1534528728.830.880126953125,-0.50146484375,0.04736328125,1.60980224609,0.312805175781,-0.30517578125
1534528728.830.88037109375,-0.502197265625,0.04736328125,1.55639648438,0.358581542969,-0.3662109375
1534528728.830.883056640625,-0.499267578125,0.044921875,1.46484375,0.503540039062,-0.259399414062
1534528728.840.879150390625,-0.5,0.0478515625,1.48010253906,0.633239746094,-0.495910644531
1534528728.840.879638671875,-0.501708984375,0.042236328125,1.49536132812,0.663757324219,-0.503540039062
1534528728.840.88134765625,-0.5009765625,0.038818359375,1.54876708984,0.648498535156,-0.404357910156
1534528728.840.87890625,-0.5,0.047119140625,1.78527832031,0.389099121094,-0.244140625
1534528728.840.882568359375,-0.499755859375,0.052978515625,1.40380859375,0.579833984375,-0.411987304688
1534528728.850.8828125,-0.499755859375,0.04638671875,1.52587890625,0.3662109375,-0.54931640625
1534528728.850.879638671875,-0.50048828125,0.048095703125,1.45721435547,0.526428222656,-0.450134277344
1534528728.850.8798828125,-0.49951171875,0.04248046875,1.67083740234,0.572204589844,-0.312805175781
1534528728.850.880126953125,-0.50048828125,0.040771484375,1.71661376953,0.335693359375,-0.251770019531
1534528728.850.879150390625,-0.501953125,0.046875,1.67083740234,0.457763671875,-0.18310546875
1534528728.850.88232421875,-0.50341796875,0.049560546875,1.73187255859,0.54931640625,-0.244140625
1534528728.850.8818359375,-0.5029296875,0.044677734375,1.56402587891,0.526428222656,-0.541687011719
1534528728.850.881591796875,-0.500732421875,0.04345703125,1.64031982422,0.518798828125,-0.54931640625
1534528728.860.885498046875,-0.5029296875,0.041748046875,1.77764892578,0.450134277344,-0.518798828125
1534528728.860.88623046875,-0.50341796875,0.04296875,1.60217285156,0.396728515625,-0.289916992188
1534528728.860.87939453125,-0.499267578125,0.045166015625,1.65557861328,0.556945800781,-0.572204589844
1534528728.860.88037109375,-0.502197265625,0.045166015625,1.49536132812,0.640869140625,-0.358581542969
1534528728.860.881103515625,-0.500732421875,0.04638671875,1.50299072266,0.564575195312,-0.320434570312
1534528728.860.8818359375,-0.498779296875,0.05224609375,1.56402587891,0.442504882812,-0.335693359375
1534528728.870.87744140625,-0.4990234375,0.05224609375,1.65557861328,0.579833984375,-0.480651855469
1534528728.870.879150390625,-0.501220703125,0.050048828125,1.67846679688,0.518798828125,-0.473022460938
1534528728.870.883544921875,-0.503662109375,0.0478515625,1.82342529297,0.320434570312,-0.297546386719
1534528728.870.882568359375,-0.50341796875,0.048583984375,1.74713134766,0.350952148438,-0.526428222656
1534528728.870.8837890625,-0.504638671875,0.046142578125,1.52587890625,0.648498535156,-0.556945800781
1534528728.870.880615234375,-0.50537109375,0.043701171875,1.64794921875,0.495910644531,-0.511169433594
1534528728.880.88037109375,-0.50341796875,0.04541015625,1.5869140625,0.381469726562,-0.411987304688
1534528728.880.881591796875,-0.50244140625,0.0517578125,1.41906738281,0.625610351562,-0.350952148438
1534528728.880.878662109375,-0.501953125,0.047607421875,1.41906738281,0.839233398438,-0.419616699219
1534528728.880.885009765625,-0.50390625,0.046630859375,1.28936767578,0.8544921875,-0.518798828125
1534528728.880.883544921875,-0.503173828125,0.047607421875,1.28936767578,0.663757324219,-0.556945800781
1534528728.880.880859375,-0.50439453125,0.04736328125,1.49536132812,0.358581542969,-0.564575195312
1534528728.880.878662109375,-0.50732421875,0.049072265625,1.88446044922,0.42724609375,-0.312805175781
1534528728.880.881591796875,-0.50732421875,0.047607421875,1.91497802734,0.465393066406,-0.42724609375
1534528728.890.882080078125,-0.503662109375,0.047119140625,1.51062011719,0.30517578125,-0.450134277344
1534528728.890.8798828125,-0.500732421875,0.050537109375,1.67846679688,0.465393066406,-0.450134277344
1534528728.890.88330078125,-0.50390625,0.04638671875,1.72424316406,0.534057617188,-0.350952148438
1534528728.890.88037109375,-0.505126953125,0.048828125,1.75476074219,0.732421875,-0.358581542969
1534528728.890.880859375,-0.501708984375,0.046142578125,1.708984375,0.503540039062,-0.480651855469
1534528728.890.8828125,-0.500244140625,0.05029296875,1.5869140625,0.564575195312,-0.442504882812
1534528728.90.88037109375,-0.50341796875,0.051513671875,1.55639648438,0.732421875,-0.3662109375
1534528728.90.877685546875,-0.502197265625,0.048828125,1.42669677734,0.6103515625,-0.404357910156
1534528728.90.877685546875,-0.50341796875,0.0498046875,1.32751464844,0.579833984375,-0.282287597656
1534528728.90.880615234375,-0.5009765625,0.047119140625,1.43432617188,0.595092773438,-0.0839233398438
1534528728.90.877685546875,-0.49853515625,0.052490234375,1.73187255859,0.595092773438,-0.144958496094
1534528728.910.879150390625,-0.49951171875,0.042724609375,1.49536132812,0.442504882812,-0.129699707031
1534528728.910.88330078125,-0.500244140625,0.05029296875,1.48010253906,0.3662109375,-0.175476074219
1534528728.910.88037109375,-0.50146484375,0.04052734375,1.50299072266,0.30517578125,-0.328063964844
1534528728.910.880126953125,-0.50244140625,0.04296875,1.66320800781,0.343322753906,-0.160217285156
1534528728.910.881103515625,-0.50341796875,0.045654296875,1.64031982422,0.48828125,-0.274658203125
1534528728.910.878173828125,-0.503662109375,0.0478515625,1.53350830078,0.640869140625,-0.503540039062
1534528728.910.87939453125,-0.504150390625,0.047119140625,1.5869140625,0.30517578125,-0.518798828125
1534528728.910.878173828125,-0.503173828125,0.04541015625,1.50299072266,0.640869140625,-0.358581542969
1534528728.920.879638671875,-0.50048828125,0.041259765625,1.68609619141,0.694274902344,-0.267028808594
1534528728.920.8798828125,-0.50048828125,0.040283203125,1.65557861328,0.541687011719,-0.244140625
1534528728.920.878662109375,-0.502197265625,0.04736328125,1.38092041016,0.663757324219,-0.251770019531
1534528728.920.88232421875,-0.504150390625,0.047119140625,1.70135498047,0.457763671875,-0.679016113281
1534528728.920.876953125,-0.502197265625,0.04345703125,1.46484375,0.694274902344,-0.778198242188
1534528728.920.875732421875,-0.503173828125,0.040283203125,1.31988525391,0.541687011719,-0.564575195312
1534528728.930.876953125,-0.501953125,0.045654296875,1.71661376953,0.289916992188,-0.602722167969
1534528728.930.883056640625,-0.503173828125,0.043701171875,1.63269042969,0.534057617188,-0.396728515625
1534528728.930.88330078125,-0.503662109375,0.043212890625,1.66320800781,0.579833984375,-0.473022460938
1534528728.930.87890625,-0.5009765625,0.04296875,1.57928466797,0.457763671875,-0.656127929688
1534528728.930.876953125,-0.501953125,0.0419921875,1.51062011719,0.648498535156,-0.564575195312
1534528728.930.882080078125,-0.503173828125,0.046142578125,1.51062011719,0.762939453125,-0.503540039062
1534528728.940.883544921875,-0.501708984375,0.046875,1.57928466797,0.595092773438,-0.6103515625
1534528728.940.881103515625,-0.5,0.052001953125,1.73950195312,0.564575195312,-0.48828125
1534528728.940.881103515625,-0.49951171875,0.046142578125,1.57165527344,0.755310058594,-0.579833984375
1534528728.940.87939453125,-0.504150390625,0.04833984375,1.60980224609,0.648498535156,-0.663757324219
1534528728.940.881103515625,-0.50537109375,0.04736328125,1.63269042969,0.579833984375,-0.48828125
1534528728.940.880126953125,-0.501953125,0.04736328125,1.77001953125,0.724792480469,-0.442504882812
1534528728.940.881591796875,-0.5,0.046875,1.70135498047,0.732421875,-0.442504882812
1534528728.950.882080078125,-0.502685546875,0.044921875,1.45721435547,0.663757324219,-0.190734863281
1534528728.950.882568359375,-0.4970703125,0.046875,1.54876708984,0.595092773438,-0.373840332031
1534528728.950.881103515625,-0.500244140625,0.041259765625,1.61743164062,0.419616699219,-0.518798828125
1534528728.950.880126953125,-0.503662109375,0.0341796875,1.48010253906,0.564575195312,-0.526428222656
1534528728.950.882080078125,-0.50390625,0.037353515625,1.64031982422,0.503540039062,-0.541687011719
1534528728.950.8818359375,-0.502685546875,0.04443359375,1.76239013672,0.808715820312,-0.465393066406
1534528728.960.879150390625,-0.5009765625,0.041748046875,1.73950195312,0.465393066406,-0.297546386719
1534528728.960.87841796875,-0.499267578125,0.04443359375,1.78527832031,0.396728515625,-0.419616699219
1534528728.960.878662109375,-0.49755859375,0.045654296875,1.90734863281,0.556945800781,-0.411987304688
1534528728.960.8818359375,-0.5,0.047119140625,1.56402587891,0.6103515625,-0.503540039062
1534528728.960.881103515625,-0.5009765625,0.04638671875,1.48010253906,0.640869140625,-0.556945800781
1534528728.960.87890625,-0.502685546875,0.04638671875,1.56402587891,0.656127929688,-0.434875488281
1534528728.960.87939453125,-0.502197265625,0.043701171875,1.54113769531,0.648498535156,-0.190734863281
1534528728.970.879638671875,-0.50048828125,0.04052734375,1.60217285156,0.823974609375,-0.411987304688
1534528728.970.884033203125,-0.50244140625,0.04931640625,1.53350830078,0.663757324219,-0.396728515625
1534528728.970.88232421875,-0.501708984375,0.043701171875,1.57928466797,0.457763671875,-0.259399414062
1534528728.970.883544921875,-0.501220703125,0.043212890625,1.64031982422,0.328063964844,-0.129699707031
1534528728.970.88330078125,-0.503173828125,0.0419921875,1.64794921875,0.358581542969,-0.259399414062
1534528728.970.88037109375,-0.50146484375,0.04296875,1.63269042969,0.389099121094,-0.442504882812
1534528728.980.881591796875,-0.5009765625,0.049072265625,1.45721435547,0.495910644531,-0.442504882812
1534528728.980.8798828125,-0.50341796875,0.04541015625,1.54113769531,0.67138671875,-0.442504882812
1534528728.980.880859375,-0.500732421875,0.047607421875,1.62506103516,0.602722167969,-0.259399414062
1534528728.980.883056640625,-0.500732421875,0.05078125,1.78527832031,0.518798828125,-0.343322753906
1534528728.980.8818359375,-0.5,0.047607421875,1.62506103516,0.518798828125,-0.228881835938
1534528728.980.87890625,-0.50048828125,0.04638671875,1.40380859375,0.67138671875,-0.434875488281
1534528728.990.8828125,-0.5029296875,0.0517578125,1.59454345703,0.434875488281,-0.526428222656
1534528728.990.87939453125,-0.50341796875,0.04736328125,1.64794921875,0.411987304688,-0.389099121094
1534528728.990.876220703125,-0.503662109375,0.044189453125,1.55639648438,0.633239746094,-0.343322753906
1534528728.990.879638671875,-0.50244140625,0.045654296875,1.33514404297,0.48828125,-0.67138671875
1534528728.990.881591796875,-0.5009765625,0.048095703125,1.59454345703,0.389099121094,-0.526428222656
1534528728.990.882080078125,-0.50244140625,0.047607421875,1.52587890625,0.267028808594,-0.587463378906
1534528728.990.88134765625,-0.50244140625,0.04833984375,1.54113769531,0.518798828125,-0.411987304688
1534528728.990.879638671875,-0.50146484375,0.04638671875,1.67846679688,0.831604003906,-0.358581542969
1534528729.00.8798828125,-0.500732421875,0.04638671875,1.82342529297,0.541687011719,-0.343322753906
1534528729.00.883544921875,-0.5078125,0.054931640625,1.57928466797,0.358581542969,-0.350952148438
1534528729.00.8828125,-0.506591796875,0.050537109375,1.73187255859,0.473022460938,-0.801086425781
1534528729.00.8798828125,-0.500244140625,0.04443359375,1.78527832031,0.465393066406,-0.434875488281
1534528729.00.881103515625,-0.502197265625,0.044921875,1.60217285156,0.48828125,-0.648498535156
1534528729.00.880859375,-0.50439453125,0.049560546875,1.63269042969,0.732421875,-0.534057617188
1534528729.010.8798828125,-0.50146484375,0.04931640625,1.55639648438,0.740051269531,-0.381469726562
1534528729.010.8828125,-0.50537109375,0.052001953125,1.66320800781,0.381469726562,-0.259399414062
1534528729.010.87939453125,-0.501708984375,0.049072265625,1.59454345703,0.289916992188,-0.373840332031
1534528729.010.878662109375,-0.50390625,0.051025390625,1.77001953125,0.42724609375,-0.411987304688
1534528729.010.87939453125,-0.504150390625,0.055419921875,1.69372558594,0.694274902344,-0.320434570312
1534528729.010.87841796875,-0.5009765625,0.052978515625,1.49536132812,0.404357910156,-0.343322753906
1534528729.020.8759765625,-0.502685546875,0.049072265625,1.63269042969,0.595092773438,-0.18310546875
1534528729.020.880859375,-0.504150390625,0.052978515625,1.61743164062,0.335693359375,-0.114440917969
1534528729.020.880615234375,-0.50244140625,0.048828125,1.51824951172,0.282287597656,-0.160217285156
1534528729.020.880126953125,-0.503662109375,0.046875,1.39617919922,0.503540039062,-0.381469726562
1534528729.020.87841796875,-0.503662109375,0.047607421875,1.54113769531,0.595092773438,-0.450134277344
1534528729.020.881103515625,-0.50244140625,0.047607421875,1.61743164062,0.396728515625,-0.350952148438
1534528729.020.878662109375,-0.499755859375,0.041748046875,1.72424316406,0.465393066406,-0.343322753906
1534528729.030.87939453125,-0.5029296875,0.04345703125,1.46484375,0.442504882812,-0.236511230469
1534528729.030.8779296875,-0.504638671875,0.0478515625,1.45721435547,0.67138671875,-0.137329101562
1534528729.030.87548828125,-0.506591796875,0.04638671875,1.67846679688,0.373840332031,-0.389099121094
1534528729.030.876953125,-0.504638671875,0.0458984375,1.51824951172,0.404357910156,-0.289916992188
1534528729.040.876220703125,-0.50048828125,0.04736328125,1.45721435547,0.343322753906,-0.411987304688
1534528729.040.884765625,-0.5048828125,0.046630859375,1.72424316406,0.251770019531,-0.442504882812
1534528729.040.883544921875,-0.5,0.0439453125,1.65557861328,0.457763671875,-0.404357910156
1534528729.040.88330078125,-0.501953125,0.04443359375,1.60217285156,0.595092773438,-0.389099121094
1534528729.040.8798828125,-0.504638671875,0.047119140625,1.37329101562,0.778198242188,-0.328063964844
1534528729.040.880859375,-0.502685546875,0.046630859375,1.38092041016,0.633239746094,-0.48828125
1534528729.040.884521484375,-0.50341796875,0.050048828125,1.53350830078,0.381469726562,-0.564575195312
1534528729.040.883056640625,-0.503173828125,0.05078125,1.57165527344,0.3662109375,-0.587463378906
1534528729.040.881591796875,-0.503173828125,0.0478515625,1.64031982422,0.320434570312,-0.373840332031
1534528729.050.88330078125,-0.50146484375,0.045166015625,1.57928466797,0.495910644531,-0.198364257812
1534528729.050.882568359375,-0.501953125,0.051025390625,1.43432617188,0.48828125,-0.495910644531
1534528729.050.882080078125,-0.50146484375,0.04833984375,1.52587890625,0.42724609375,-0.450134277344
1534528729.050.87939453125,-0.50341796875,0.04541015625,1.62506103516,0.717163085938,-0.54931640625
1534528729.060.87744140625,-0.500732421875,0.047607421875,1.60980224609,0.564575195312,-0.381469726562
1534528729.060.8798828125,-0.496826171875,0.04541015625,1.67083740234,0.30517578125,-0.251770019531
1534528729.060.87939453125,-0.501708984375,0.049072265625,1.57165527344,0.442504882812,-0.343322753906
1534528729.060.8798828125,-0.504150390625,0.046875,1.51824951172,0.503540039062,-0.595092773438
1534528729.060.877685546875,-0.501220703125,0.04541015625,1.63269042969,0.518798828125,-0.572204589844
1534528729.060.87646484375,-0.503662109375,0.043212890625,1.75476074219,0.518798828125,-0.419616699219
1534528729.060.880126953125,-0.504150390625,0.043212890625,1.47247314453,0.404357910156,-0.343322753906
1534528729.060.882568359375,-0.499267578125,0.045654296875,1.57928466797,0.404357910156,-0.381469726562
1534528729.060.87744140625,-0.503173828125,0.050537109375,1.54876708984,0.48828125,-0.480651855469
1534528729.070.87744140625,-0.50146484375,0.050537109375,1.80053710938,0.625610351562,-0.350952148438
1534528729.070.877685546875,-0.50390625,0.04541015625,1.54113769531,0.343322753906,-0.48828125
1534528729.070.878173828125,-0.501220703125,0.049072265625,1.5869140625,0.457763671875,-0.419616699219
1534528729.070.879150390625,-0.501708984375,0.048828125,1.49536132812,0.679016113281,-0.358581542969
1534528729.070.87890625,-0.502197265625,0.04443359375,1.60217285156,0.732421875,-0.534057617188
1534528729.070.879150390625,-0.50048828125,0.049560546875,1.91497802734,0.480651855469,-0.411987304688
1534528729.080.881591796875,-0.50048828125,0.053955078125,1.56402587891,0.511169433594,-0.244140625
1534528729.080.88134765625,-0.500732421875,0.043701171875,1.66320800781,0.587463378906,-0.434875488281
1534528729.080.880126953125,-0.504638671875,0.048583984375,1.71661376953,0.579833984375,-0.137329101562
1534528729.080.877685546875,-0.502197265625,0.03955078125,1.64794921875,0.42724609375,-0.358581542969
1534528729.080.8818359375,-0.501708984375,0.0419921875,1.44958496094,0.480651855469,-0.518798828125
1534528729.080.88427734375,-0.502685546875,0.0419921875,1.64031982422,0.495910644531,-0.404357910156
1534528729.090.8876953125,-0.501708984375,0.048095703125,1.61743164062,0.556945800781,-0.526428222656
1534528729.090.8779296875,-0.502197265625,0.046875,1.5869140625,0.511169433594,-0.556945800781
1534528729.090.877685546875,-0.4970703125,0.05419921875,1.59454345703,0.701904296875,-0.373840332031
1534528729.10.880859375,-0.498046875,0.048095703125,1.62506103516,0.633239746094,-0.114440917969
1534528729.10.880126953125,-0.500732421875,0.048828125,1.86157226562,0.625610351562,-0.328063964844
1534528729.10.88134765625,-0.500732421875,0.04541015625,1.60980224609,0.8544921875,-0.503540039062
1534528729.10.87841796875,-0.5048828125,0.04345703125,1.51062011719,0.633239746094,-0.518798828125
1534528729.10.8798828125,-0.50341796875,0.047119140625,1.50299072266,0.411987304688,-0.434875488281
1534528729.10.87890625,-0.5029296875,0.048095703125,1.59454345703,0.679016113281,-0.572204589844
1534528729.110.880126953125,-0.5048828125,0.044921875,1.31988525391,0.663757324219,-0.495910644531
1534528729.110.880615234375,-0.50390625,0.050537109375,1.76239013672,0.602722167969,-0.442504882812
1534528729.110.883056640625,-0.5048828125,0.05078125,1.51824951172,0.297546386719,-0.411987304688
1534528729.110.88134765625,-0.5029296875,0.05078125,1.46484375,0.450134277344,-0.251770019531
1534528729.110.880126953125,-0.5009765625,0.047607421875,1.57928466797,0.48828125,-0.3662109375
1534528729.120.877685546875,-0.500244140625,0.050537109375,1.62506103516,0.587463378906,-0.534057617188
1534528729.120.882568359375,-0.50439453125,0.0517578125,1.708984375,0.656127929688,-0.473022460938
1534528729.120.8818359375,-0.505859375,0.04638671875,1.63269042969,0.640869140625,-0.465393066406
1534528729.120.881591796875,-0.50244140625,0.043701171875,1.5869140625,0.679016113281,-0.320434570312
1534528729.120.87890625,-0.503173828125,0.040771484375,1.69372558594,0.625610351562,-0.221252441406
1534528729.130.881103515625,-0.504638671875,0.04248046875,1.52587890625,0.572204589844,-0.42724609375
1534528729.130.87890625,-0.502197265625,0.044677734375,1.25122070312,0.579833984375,-0.633239746094
1534528729.130.879638671875,-0.499755859375,0.046142578125,1.25885009766,0.701904296875,-0.419616699219
1534528729.130.880859375,-0.501953125,0.046630859375,1.61743164062,0.663757324219,-0.511169433594
1534528729.130.877197265625,-0.500732421875,0.045166015625,1.68609619141,0.724792480469,-0.534057617188
1534528729.140.879150390625,-0.499267578125,0.044189453125,1.50299072266,0.709533691406,-0.564575195312
1534528729.140.87841796875,-0.5029296875,0.050537109375,1.42669677734,0.503540039062,-0.274658203125
1534528729.140.876953125,-0.503173828125,0.0498046875,1.60980224609,0.190734863281,-0.267028808594
1534528729.140.8779296875,-0.50244140625,0.041259765625,1.54113769531,0.320434570312,-0.205993652344
1534528729.140.879638671875,-0.501708984375,0.043701171875,1.52587890625,0.541687011719,-0.228881835938
1534528729.140.881103515625,-0.5029296875,0.047607421875,1.57165527344,0.740051269531,-0.244140625
1534528729.140.880859375,-0.50146484375,0.048828125,1.61743164062,0.762939453125,-0.198364257812
1534528729.140.87646484375,-0.502685546875,0.048583984375,1.51062011719,0.633239746094,-0.335693359375
1534528729.140.877685546875,-0.504638671875,0.045654296875,1.54113769531,0.534057617188,-0.236511230469
1534528729.150.8779296875,-0.5029296875,0.045166015625,1.5869140625,0.534057617188,-0.350952148438
1534528729.150.879638671875,-0.501953125,0.04248046875,1.70135498047,0.541687011719,-0.274658203125
1534528729.150.8798828125,-0.50732421875,0.0478515625,1.64794921875,0.480651855469,-0.343322753906
1534528729.150.8837890625,-0.5048828125,0.05078125,1.60217285156,0.457763671875,-0.442504882812
1534528729.150.88232421875,-0.505126953125,0.048828125,1.5869140625,0.541687011719,-0.473022460938
1534528729.150.88037109375,-0.506103515625,0.049072265625,1.62506103516,0.740051269531,-0.419616699219
1534528729.150.87890625,-0.5029296875,0.04638671875,1.51824951172,0.42724609375,-0.541687011719
1534528729.160.877197265625,-0.503662109375,0.043212890625,1.52587890625,0.106811523438,-0.419616699219
1534528729.160.884765625,-0.50390625,0.050537109375,1.41906738281,0.48828125,-0.236511230469
1534528729.160.8818359375,-0.50390625,0.052978515625,1.60217285156,0.404357910156,-0.457763671875
1534528729.160.8837890625,-0.504638671875,0.044677734375,1.42669677734,0.442504882812,-0.503540039062
1534528729.170.880615234375,-0.50537109375,0.046630859375,1.32751464844,0.526428222656,-0.495910644531
1534528729.170.879150390625,-0.50390625,0.044921875,1.40380859375,0.587463378906,-0.473022460938
1534528729.170.880859375,-0.503662109375,0.046630859375,1.57165527344,0.373840332031,-0.495910644531
1534528729.170.88037109375,-0.5048828125,0.044677734375,1.73187255859,0.267028808594,-0.602722167969
1534528729.170.8779296875,-0.50537109375,0.04150390625,1.64794921875,0.328063964844,-0.335693359375
1534528729.170.880126953125,-0.5048828125,0.0419921875,1.48010253906,0.511169433594,-0.350952148438
1534528729.170.881103515625,-0.504638671875,0.0439453125,1.41906738281,0.526428222656,-0.244140625
1534528729.170.880615234375,-0.503173828125,0.041748046875,1.41906738281,0.3662109375,-0.335693359375
1534528729.180.881103515625,-0.50341796875,0.046875,1.62506103516,0.625610351562,-0.617980957031
1534528729.180.881103515625,-0.50048828125,0.05224609375,1.44195556641,0.503540039062,-0.457763671875
1534528729.180.88427734375,-0.50439453125,0.04736328125,1.61743164062,0.450134277344,-0.328063964844
1534528729.180.883544921875,-0.5068359375,0.038818359375,1.53350830078,0.587463378906,-0.282287597656
1534528729.180.881591796875,-0.5029296875,0.0419921875,1.56402587891,0.534057617188,-0.228881835938
1534528729.180.878173828125,-0.501708984375,0.05126953125,1.44958496094,0.511169433594,-0.442504882812
1534528729.190.881103515625,-0.5029296875,0.04833984375,1.78527832031,0.564575195312,-0.358581542969
1534528729.190.880859375,-0.504150390625,0.052978515625,1.67846679688,0.724792480469,-0.396728515625
1534528729.190.8759765625,-0.505126953125,0.05029296875,1.60980224609,0.770568847656,-0.259399414062
1534528729.190.87939453125,-0.4970703125,0.039794921875,1.48010253906,0.686645507812,-0.236511230469
1534528729.190.880615234375,-0.4990234375,0.04345703125,1.59454345703,0.534057617188,-0.480651855469
1534528729.190.879150390625,-0.501708984375,0.046142578125,1.54113769531,0.3662109375,-0.564575195312
1534528729.20.879150390625,-0.501220703125,0.045166015625,1.61743164062,0.289916992188,-0.389099121094
1534528729.20.884033203125,-0.50146484375,0.047607421875,1.60980224609,0.343322753906,-0.259399414062
1534528729.20.88232421875,-0.50341796875,0.04931640625,1.60217285156,0.480651855469,-0.419616699219
1534528729.20.88037109375,-0.501708984375,0.0478515625,1.49536132812,0.556945800781,-0.617980957031
1534528729.20.879638671875,-0.49658203125,0.04736328125,1.54113769531,0.404357910156,-0.648498535156
1534528729.20.879150390625,-0.49560546875,0.04443359375,1.8310546875,0.465393066406,-0.389099121094
1534528729.20.87890625,-0.4951171875,0.041748046875,1.51062011719,0.48828125,-0.358581542969
1534528729.210.881103515625,-0.502685546875,0.0439453125,1.54876708984,0.648498535156,-0.518798828125
1534528729.210.8828125,-0.50341796875,0.04443359375,1.60980224609,0.473022460938,-0.289916992188
1534528729.210.88330078125,-0.501708984375,0.0478515625,1.44958496094,0.419616699219,-0.3662109375
1534528729.210.8818359375,-0.500244140625,0.04833984375,1.48773193359,0.389099121094,-0.54931640625
1534528729.210.88037109375,-0.5029296875,0.04248046875,1.46484375,0.869750976562,-0.495910644531
1534528729.220.877685546875,-0.499755859375,0.047119140625,1.44195556641,0.335693359375,-0.404357910156
1534528729.220.880615234375,-0.50634765625,0.044189453125,1.50299072266,0.511169433594,-0.511169433594
1534528729.220.879638671875,-0.50244140625,0.05029296875,1.66320800781,0.450134277344,-0.511169433594
1534528729.220.878662109375,-0.501953125,0.046875,1.70135498047,0.450134277344,-0.389099121094
1534528729.220.87939453125,-0.50341796875,0.04150390625,1.61743164062,0.587463378906,-0.396728515625
1534528729.220.882080078125,-0.501953125,0.0419921875,1.60980224609,0.526428222656,-0.595092773438
1534528729.220.87939453125,-0.501708984375,0.04736328125,1.67846679688,0.6103515625,-0.579833984375
1534528729.230.88134765625,-0.500732421875,0.04931640625,1.69372558594,0.648498535156,-0.389099121094
1534528729.230.881103515625,-0.50439453125,0.049072265625,1.41906738281,0.686645507812,-0.335693359375
1534528729.230.87841796875,-0.50146484375,0.048095703125,1.55639648438,0.732421875,-0.640869140625
1534528729.230.881103515625,-0.502685546875,0.04638671875,1.63269042969,0.770568847656,-0.251770019531
1534528729.230.8818359375,-0.50390625,0.044677734375,1.52587890625,0.663757324219,-0.473022460938
1534528729.240.87939453125,-0.5009765625,0.04833984375,1.51062011719,0.511169433594,-0.595092773438
1534528729.240.879150390625,-0.50146484375,0.05078125,1.67083740234,0.511169433594,-0.389099121094
1534528729.240.88330078125,-0.501708984375,0.049072265625,1.80816650391,0.457763671875,-0.389099121094
1534528729.240.883544921875,-0.499267578125,0.049560546875,1.64794921875,0.602722167969,-0.236511230469
1534528729.240.879638671875,-0.50244140625,0.0478515625,1.48773193359,0.579833984375,-0.190734863281
1534528729.240.880615234375,-0.4990234375,0.048583984375,1.57928466797,0.503540039062,-0.137329101562
1534528729.240.880859375,-0.50048828125,0.045654296875,1.55639648438,0.701904296875,-0.289916992188
1534528729.240.881591796875,-0.502685546875,0.05224609375,1.48773193359,0.457763671875,-0.335693359375
1534528729.240.879638671875,-0.5009765625,0.052978515625,1.51824951172,0.42724609375,-0.221252441406
1534528729.250.881103515625,-0.4990234375,0.04931640625,1.61743164062,0.144958496094,-0.48828125
1534528729.250.878662109375,-0.50439453125,0.042724609375,1.38854980469,0.48828125,-0.404357910156
1534528729.250.878173828125,-0.501953125,0.048583984375,1.79290771484,0.6103515625,-0.282287597656
1534528729.250.87744140625,-0.50048828125,0.05078125,1.63269042969,0.465393066406,-0.244140625
1534528729.250.88037109375,-0.503173828125,0.048583984375,1.67846679688,0.480651855469,-0.213623046875
1534528729.250.87744140625,-0.501220703125,0.05078125,1.83868408203,0.6103515625,-0.289916992188
1534528729.260.8798828125,-0.501220703125,0.048583984375,1.48010253906,0.526428222656,-0.373840332031
1534528729.260.8837890625,-0.50244140625,0.04443359375,1.79290771484,0.480651855469,-0.396728515625
1534528729.260.878662109375,-0.501708984375,0.04736328125,1.63269042969,0.389099121094,-0.541687011719
1534528729.260.877685546875,-0.50048828125,0.049560546875,1.55639648438,0.495910644531,-0.495910644531
1534528729.260.882080078125,-0.50341796875,0.046630859375,1.64794921875,0.572204589844,-0.244140625
1534528729.270.88330078125,-0.50634765625,0.05126953125,1.64794921875,0.534057617188,-0.144958496094
1534528729.270.882568359375,-0.508544921875,0.0498046875,1.71661376953,0.30517578125,-0.205993652344
1534528729.270.8818359375,-0.506103515625,0.044921875,1.77764892578,0.518798828125,-0.328063964844
1534528729.270.880615234375,-0.50146484375,0.048583984375,1.52587890625,0.373840332031,-0.473022460938
1534528729.270.880126953125,-0.502197265625,0.048583984375,1.38092041016,0.236511230469,-0.335693359375
1534528729.270.8828125,-0.498779296875,0.043701171875,1.5869140625,0.221252441406,-0.312805175781
1534528729.270.88232421875,-0.501953125,0.044189453125,1.67846679688,0.480651855469,-0.473022460938
1534528729.270.88037109375,-0.505615234375,0.044921875,1.48010253906,0.801086425781,-0.389099121094
1534528729.280.87890625,-0.50390625,0.050537109375,1.43432617188,0.617980957031,-0.411987304688
1534528729.280.879150390625,-0.502197265625,0.05126953125,1.57165527344,0.3662109375,-0.473022460938
1534528729.280.879150390625,-0.502197265625,0.044677734375,1.65557861328,0.633239746094,-0.503540039062
1534528729.280.87841796875,-0.503662109375,0.042236328125,1.60217285156,0.701904296875,-0.534057617188
1534528729.280.88134765625,-0.51025390625,0.044677734375,1.45721435547,0.541687011719,-0.3662109375
1534528729.280.882080078125,-0.50927734375,0.045654296875,1.46484375,0.30517578125,-0.442504882812
1534528729.280.880615234375,-0.506103515625,0.046875,1.55639648438,0.381469726562,-0.312805175781
1534528729.290.8837890625,-0.503662109375,0.04296875,1.62506103516,0.48828125,-0.320434570312
1534528729.290.882568359375,-0.50341796875,0.04833984375,1.37329101562,0.404357910156,-0.450134277344
1534528729.290.87939453125,-0.50341796875,0.044921875,1.50299072266,0.205993652344,-0.648498535156
1534528729.290.8798828125,-0.5009765625,0.050537109375,1.73950195312,0.419616699219,-0.595092773438
1534528729.290.879638671875,-0.502197265625,0.045654296875,1.75476074219,0.358581542969,-0.419616699219
1534528729.30.881103515625,-0.502685546875,0.040771484375,1.64031982422,0.518798828125,-0.633239746094
1534528729.30.882080078125,-0.504638671875,0.04296875,1.51062011719,0.67138671875,-0.396728515625
1534528729.30.8798828125,-0.503173828125,0.046875,1.64031982422,0.503540039062,-0.42724609375
1534528729.30.877197265625,-0.501953125,0.048095703125,1.37329101562,0.289916992188,-0.381469726562
1534528729.30.879150390625,-0.50146484375,0.0498046875,1.36566162109,0.579833984375,-0.503540039062
1534528729.30.8798828125,-0.502197265625,0.050537109375,1.35803222656,0.473022460938,-0.617980957031
1534528729.30.878662109375,-0.503173828125,0.046630859375,1.68609619141,0.297546386719,-0.564575195312
1534528729.30.879638671875,-0.504638671875,0.04443359375,1.73950195312,0.350952148438,-0.343322753906
1534528729.310.877685546875,-0.502197265625,0.048095703125,1.57165527344,0.312805175781,-0.358581542969
1534528729.310.883544921875,-0.503662109375,0.05126953125,1.64031982422,0.335693359375,-0.350952148438
1534528729.310.88134765625,-0.506103515625,0.046875,1.64794921875,0.534057617188,-0.205993652344
1534528729.310.880859375,-0.504638671875,0.048583984375,1.48773193359,0.473022460938,-0.518798828125
1534528729.310.87890625,-0.505615234375,0.040771484375,1.56402587891,0.595092773438,-0.358581542969
1534528729.310.87841796875,-0.50537109375,0.04150390625,1.57165527344,0.79345703125,-0.579833984375
1534528729.320.87939453125,-0.504150390625,0.043212890625,1.55639648438,0.6103515625,-0.640869140625
1534528729.320.88232421875,-0.504150390625,0.045166015625,1.51824951172,0.450134277344,-0.42724609375
1534528729.320.879150390625,-0.505126953125,0.04541015625,1.60980224609,0.419616699219,-0.411987304688
1534528729.320.87890625,-0.506103515625,0.0517578125,1.75476074219,0.320434570312,-0.404357910156
1534528729.320.875244140625,-0.50341796875,0.0478515625,1.44195556641,0.495910644531,-0.3662109375
1534528729.320.87939453125,-0.5,0.0517578125,1.83868408203,0.534057617188,-0.511169433594
1534528729.330.8798828125,-0.4990234375,0.0458984375,1.77001953125,0.595092773438,-0.534057617188
1534528729.330.881591796875,-0.50146484375,0.0498046875,1.60980224609,0.633239746094,-0.343322753906
1534528729.330.880859375,-0.501708984375,0.05126953125,1.52587890625,0.465393066406,-0.312805175781
1534528729.330.882568359375,-0.501708984375,0.044189453125,1.46484375,0.350952148438,-0.419616699219
1534528729.330.879638671875,-0.499267578125,0.0439453125,1.50299072266,0.411987304688,-0.328063964844
1534528729.330.880126953125,-0.498291015625,0.050048828125,1.54876708984,0.694274902344,-0.48828125
1534528729.330.880859375,-0.499755859375,0.048828125,1.47247314453,0.42724609375,-0.42724609375
1534528729.340.88134765625,-0.501708984375,0.0390625,1.48010253906,0.541687011719,-0.686645507812
1534528729.340.879150390625,-0.50146484375,0.052734375,1.54876708984,0.633239746094,-0.411987304688
1534528729.340.877685546875,-0.501953125,0.052734375,1.70135498047,0.717163085938,-0.404357910156
1534528729.340.882568359375,-0.504150390625,0.0458984375,1.69372558594,0.595092773438,-0.602722167969
1534528729.340.881103515625,-0.50341796875,0.055419921875,1.72424316406,0.656127929688,-0.381469726562
1534528729.340.8818359375,-0.502197265625,0.0546875,1.39617919922,0.503540039062,-0.221252441406
1534528729.340.883056640625,-0.503662109375,0.04248046875,1.38092041016,0.564575195312,-0.167846679688
1534528729.350.87841796875,-0.50341796875,0.05078125,1.63269042969,0.724792480469,-0.389099121094
1534528729.350.88134765625,-0.50390625,0.0498046875,1.45721435547,0.656127929688,-0.343322753906
1534528729.350.881591796875,-0.501953125,0.049072265625,1.49536132812,0.617980957031,-0.572204589844
1534528729.350.88427734375,-0.501953125,0.0546875,1.50299072266,0.808715820312,-0.602722167969
1534528729.350.87841796875,-0.503173828125,0.04638671875,1.44958496094,0.701904296875,-0.411987304688
1534528729.350.878662109375,-0.50439453125,0.04638671875,1.51824951172,0.465393066406,-0.358581542969
1534528729.350.87939453125,-0.50341796875,0.044921875,1.68609619141,0.54931640625,-0.572204589844
1534528729.360.878173828125,-0.50537109375,0.048828125,1.68609619141,0.419616699219,-0.572204589844
1534528729.360.87646484375,-0.503662109375,0.047607421875,1.50299072266,0.411987304688,-0.328063964844
1534528729.360.8818359375,-0.5029296875,0.048095703125,1.5869140625,0.54931640625,-0.389099121094
1534528729.360.88330078125,-0.4990234375,0.046630859375,1.51824951172,0.389099121094,-0.518798828125
1534528729.360.881591796875,-0.50146484375,0.05322265625,1.71661376953,0.602722167969,-0.42724609375
1534528729.360.881591796875,-0.50537109375,0.05322265625,1.60217285156,0.663757324219,-0.328063964844
1534528729.370.883544921875,-0.50244140625,0.05224609375,1.36566162109,0.495910644531,-0.198364257812
1534528729.370.88427734375,-0.5009765625,0.05078125,1.62506103516,0.236511230469,-0.244140625
1534528729.370.88330078125,-0.50244140625,0.0478515625,1.71661376953,0.450134277344,-0.320434570312
1534528729.370.88232421875,-0.501953125,0.046142578125,1.67083740234,0.686645507812,-0.244140625
1534528729.370.878662109375,-0.5029296875,0.047119140625,1.48010253906,0.450134277344,-0.267028808594
1534528729.370.879150390625,-0.50244140625,0.04833984375,1.60217285156,0.404357910156,-0.228881835938
1534528729.380.876953125,-0.5009765625,0.04541015625,1.50299072266,0.3662109375,-0.160217285156
1534528729.380.87939453125,-0.501708984375,0.047119140625,1.55639648438,0.709533691406,-0.0381469726562
1534528729.380.881103515625,-0.50048828125,0.044921875,1.71661376953,0.740051269531,-0.343322753906
1534528729.380.881591796875,-0.499267578125,0.04541015625,1.79290771484,0.572204589844,-0.335693359375
1534528729.380.88330078125,-0.50146484375,0.04638671875,1.47247314453,0.389099121094,-0.190734863281
1534528729.390.8818359375,-0.502197265625,0.0458984375,1.8310546875,0.267028808594,-0.419616699219
1534528729.390.88232421875,-0.50537109375,0.044921875,1.55639648438,0.732421875,-0.343322753906
1534528729.390.88330078125,-0.504638671875,0.045654296875,1.47247314453,0.518798828125,-0.404357910156
1534528729.390.876708984375,-0.50244140625,0.050537109375,1.57928466797,0.495910644531,-0.244140625
1534528729.390.879150390625,-0.505615234375,0.045654296875,1.50299072266,0.640869140625,-0.198364257812
1534528729.390.88232421875,-0.50439453125,0.0439453125,1.51824951172,0.434875488281,-0.167846679688
1534528729.40.8837890625,-0.5,0.044921875,1.47247314453,0.30517578125,-0.450134277344
1534528729.40.881591796875,-0.5068359375,0.0537109375,1.32751464844,0.526428222656,-0.526428222656
1534528729.40.88330078125,-0.50537109375,0.0498046875,1.49536132812,0.381469726562,-0.396728515625
1534528729.40.8837890625,-0.500244140625,0.04736328125,1.57165527344,0.480651855469,-0.442504882812
1534528729.40.883056640625,-0.50146484375,0.04833984375,1.51824951172,0.434875488281,-0.350952148438
1534528729.40.8828125,-0.506591796875,0.044921875,1.51824951172,0.541687011719,-0.396728515625
1534528729.40.8798828125,-0.505126953125,0.043212890625,1.62506103516,0.633239746094,-0.350952148438
1534528729.40.87841796875,-0.5,0.045654296875,1.57928466797,0.595092773438,-0.328063964844
1534528729.410.88330078125,-0.49951171875,0.048095703125,1.54876708984,0.251770019531,-0.30517578125
1534528729.410.88525390625,-0.49853515625,0.050048828125,1.57928466797,0.18310546875,-0.411987304688
1534528729.410.880615234375,-0.499267578125,0.048583984375,1.48773193359,0.518798828125,-0.6103515625
1534528729.410.88037109375,-0.503173828125,0.048095703125,1.55639648438,0.167846679688,-0.42724609375
1534528729.410.878662109375,-0.505126953125,0.045654296875,1.40380859375,0.42724609375,-0.404357910156
1534528729.420.88330078125,-0.5029296875,0.047119140625,1.44958496094,0.587463378906,-0.411987304688
1534528729.420.884765625,-0.501220703125,0.041015625,1.56402587891,0.450134277344,-0.419616699219
1534528729.420.8779296875,-0.501708984375,0.0390625,1.54876708984,0.480651855469,-0.358581542969
1534528729.420.878662109375,-0.5,0.0458984375,1.44195556641,0.442504882812,-0.457763671875
1534528729.420.87890625,-0.50537109375,0.0498046875,1.55639648438,0.350952148438,-0.511169433594
1534528729.420.878662109375,-0.5068359375,0.04833984375,1.61743164062,0.381469726562,-0.411987304688
1534528729.420.87939453125,-0.50244140625,0.044921875,1.5869140625,0.617980957031,-0.48828125
1534528729.420.87646484375,-0.5029296875,0.050537109375,1.46484375,0.656127929688,-0.473022460938
1534528729.430.87890625,-0.50439453125,0.0498046875,1.71661376953,0.663757324219,-0.205993652344
1534528729.430.87939453125,-0.50244140625,0.04443359375,1.48010253906,0.801086425781,-0.320434570312
1534528729.430.87890625,-0.504638671875,0.042236328125,1.38854980469,0.732421875,-0.434875488281
1534528729.430.878173828125,-0.507568359375,0.043212890625,1.5869140625,0.663757324219,-0.526428222656
1534528729.430.879150390625,-0.50439453125,0.03759765625,1.71661376953,0.625610351562,-0.67138671875
1534528729.430.881591796875,-0.503662109375,0.038818359375,1.54113769531,0.312805175781,-0.648498535156
1534528729.440.879150390625,-0.503662109375,0.04296875,1.36566162109,0.274658203125,-0.473022460938
1534528729.440.878173828125,-0.5048828125,0.046875,1.35803222656,0.495910644531,-0.389099121094
1534528729.440.87646484375,-0.5048828125,0.05078125,1.46484375,0.579833984375,-0.320434570312
1534528729.440.87744140625,-0.501708984375,0.05126953125,1.53350830078,0.595092773438,-0.18310546875
1534528729.440.88232421875,-0.5029296875,0.0517578125,1.88446044922,0.503540039062,-0.42724609375
1534528729.440.882080078125,-0.501953125,0.048828125,1.72424316406,0.701904296875,-0.564575195312
1534528729.440.878662109375,-0.5029296875,0.045654296875,1.51062011719,0.732421875,-0.564575195312
1534528729.450.878173828125,-0.5029296875,0.04541015625,1.60980224609,0.396728515625,-0.862121582031
1534528729.450.876953125,-0.50341796875,0.0458984375,1.41906738281,0.213623046875,-0.587463378906
1534528729.450.878662109375,-0.50244140625,0.046630859375,1.48773193359,0.267028808594,-0.289916992188
1534528729.450.87939453125,-0.5,0.046630859375,1.64794921875,0.701904296875,-0.434875488281
1534528729.450.8798828125,-0.503173828125,0.0478515625,1.77764892578,0.556945800781,-0.48828125
1534528729.450.879638671875,-0.50244140625,0.0458984375,1.75476074219,0.587463378906,-0.358581542969
1534528729.460.880126953125,-0.50341796875,0.0439453125,1.54876708984,0.564575195312,-0.221252441406
1534528729.460.881591796875,-0.504638671875,0.043701171875,1.45721435547,0.579833984375,-0.236511230469
1534528729.460.882568359375,-0.504638671875,0.04931640625,1.40380859375,0.450134277344,-0.358581542969
1534528729.460.883056640625,-0.501220703125,0.048095703125,1.48773193359,0.602722167969,-0.350952148438
1534528729.460.8837890625,-0.50048828125,0.04345703125,1.48773193359,0.679016113281,-0.434875488281
1534528729.460.880126953125,-0.501708984375,0.04736328125,1.35803222656,0.602722167969,-0.480651855469
1534528729.460.8828125,-0.498779296875,0.0458984375,1.47247314453,0.595092773438,-0.48828125
1534528729.470.8837890625,-0.5,0.043212890625,1.62506103516,0.579833984375,-0.3662109375
1534528729.470.884033203125,-0.502685546875,0.04638671875,1.77001953125,0.495910644531,-0.228881835938
1534528729.470.8818359375,-0.499267578125,0.048095703125,1.71661376953,0.717163085938,-0.297546386719
1534528729.470.88037109375,-0.504150390625,0.0498046875,1.44195556641,0.816345214844,-0.656127929688
1534528729.470.87841796875,-0.50390625,0.04833984375,1.31225585938,0.518798828125,-0.518798828125
1534528729.480.875244140625,-0.50244140625,0.04296875,1.64031982422,0.442504882812,-0.251770019531
1534528729.480.883056640625,-0.500732421875,0.052978515625,1.75476074219,0.709533691406,-0.267028808594
1534528729.480.880126953125,-0.5029296875,0.045166015625,1.45721435547,0.419616699219,-0.3662109375
1534528729.480.880615234375,-0.502197265625,0.041015625,1.3427734375,0.602722167969,-0.328063964844
1534528729.480.879150390625,-0.502197265625,0.0439453125,1.48010253906,0.717163085938,-0.350952148438
1534528729.480.880126953125,-0.50146484375,0.046875,1.56402587891,0.541687011719,-0.389099121094
1534528729.490.8798828125,-0.500732421875,0.0478515625,1.71661376953,0.495910644531,-0.411987304688
1534528729.490.881103515625,-0.5029296875,0.048828125,1.73187255859,0.648498535156,-0.419616699219
1534528729.490.879638671875,-0.50146484375,0.050048828125,1.70135498047,0.625610351562,-0.3662109375
1534528729.490.880126953125,-0.501953125,0.0458984375,1.71661376953,0.442504882812,-0.389099121094
1534528729.490.878173828125,-0.50439453125,0.044921875,1.64031982422,0.335693359375,-0.381469726562
1534528729.50.878173828125,-0.50146484375,0.04541015625,1.64031982422,0.473022460938,-0.335693359375
1534528729.50.87744140625,-0.498779296875,0.0419921875,1.50299072266,0.54931640625,-0.518798828125
1534528729.50.876953125,-0.50146484375,0.048583984375,1.33514404297,0.503540039062,-0.495910644531
1534528729.50.87890625,-0.50390625,0.049072265625,1.53350830078,0.465393066406,-0.228881835938
1534528729.50.879150390625,-0.501708984375,0.0458984375,1.56402587891,0.48828125,-0.129699707031
1534528729.50.881591796875,-0.5009765625,0.04150390625,1.73187255859,0.587463378906,-0.419616699219
1534528729.50.88232421875,-0.502197265625,0.043212890625,1.69372558594,0.457763671875,-0.42724609375
1534528729.50.880615234375,-0.5029296875,0.0517578125,1.47247314453,0.534057617188,-0.251770019531
1534528729.50.87890625,-0.505126953125,0.047607421875,1.29699707031,0.694274902344,-0.450134277344
1534528729.510.8798828125,-0.502685546875,0.04345703125,1.56402587891,0.373840332031,-0.54931640625
1534528729.510.8759765625,-0.501953125,0.048583984375,1.54113769531,0.434875488281,-0.434875488281
1534528729.510.879150390625,-0.5048828125,0.04541015625,1.44195556641,0.694274902344,-0.320434570312
1534528729.510.8798828125,-0.501220703125,0.048583984375,1.51824951172,0.640869140625,-0.389099121094
1534528729.510.879150390625,-0.502197265625,0.050048828125,1.54113769531,0.663757324219,-0.556945800781
1534528729.510.87939453125,-0.504150390625,0.05224609375,1.69372558594,0.442504882812,-0.503540039062
1534528729.520.87890625,-0.50439453125,0.050048828125,1.74713134766,0.297546386719,-0.526428222656
1534528729.520.880615234375,-0.50146484375,0.046630859375,1.46484375,0.137329101562,-0.48828125
1534528729.520.882568359375,-0.502685546875,0.043212890625,1.35803222656,0.518798828125,-0.473022460938
1534528729.520.883544921875,-0.503173828125,0.045166015625,1.63269042969,0.747680664062,-0.335693359375
1534528729.520.880859375,-0.50048828125,0.044677734375,1.67083740234,0.640869140625,-0.267028808594
1534528729.530.881103515625,-0.505126953125,0.046875,1.56402587891,0.587463378906,-0.160217285156
1534528729.530.87841796875,-0.502685546875,0.048095703125,1.60217285156,0.411987304688,-0.213623046875
1534528729.530.87939453125,-0.5048828125,0.044921875,1.67846679688,0.30517578125,-0.42724609375
1534528729.530.882080078125,-0.503662109375,0.04541015625,1.48773193359,0.640869140625,-0.495910644531
1534528729.530.880126953125,-0.503173828125,0.04052734375,1.60980224609,0.480651855469,-0.465393066406
1534528729.530.878173828125,-0.506103515625,0.0439453125,1.48773193359,0.450134277344,-0.42724609375
1534528729.530.881591796875,-0.504638671875,0.04736328125,1.46484375,0.419616699219,-0.350952148438
1534528729.530.880859375,-0.50341796875,0.04736328125,1.49536132812,0.54931640625,-0.450134277344
1534528729.540.880859375,-0.50439453125,0.04638671875,1.48773193359,0.640869140625,-0.450134277344
1534528729.540.88134765625,-0.50244140625,0.047607421875,1.37329101562,0.343322753906,-0.511169433594
1534528729.540.878662109375,-0.50341796875,0.05078125,1.74713134766,0.297546386719,-0.404357910156
1534528729.540.87646484375,-0.502685546875,0.044189453125,1.68609619141,0.465393066406,-0.617980957031
1534528729.540.879638671875,-0.504638671875,0.04833984375,1.64031982422,0.579833984375,-0.343322753906
1534528729.540.881103515625,-0.506591796875,0.05419921875,1.66320800781,0.587463378906,-0.335693359375
1534528729.550.880859375,-0.50732421875,0.0478515625,1.70135498047,0.411987304688,-0.442504882812
1534528729.550.88134765625,-0.507568359375,0.04541015625,1.64031982422,0.411987304688,-0.328063964844
1534528729.550.8798828125,-0.50439453125,0.044677734375,1.42669677734,0.534057617188,-0.381469726562
1534528729.550.8798828125,-0.4990234375,0.045654296875,1.46484375,0.732421875,-0.473022460938
1534528729.550.877685546875,-0.500244140625,0.044921875,1.38854980469,0.48828125,-0.450134277344
1534528729.550.88037109375,-0.495361328125,0.049072265625,1.57928466797,0.434875488281,-0.30517578125
1534528729.560.8798828125,-0.4990234375,0.046875,1.44195556641,0.419616699219,-0.358581542969
1534528729.560.876220703125,-0.50439453125,0.044189453125,1.51062011719,0.709533691406,-0.633239746094
1534528729.560.877685546875,-0.500732421875,0.04638671875,1.61743164062,0.747680664062,-0.457763671875
1534528729.560.880859375,-0.5,0.050537109375,1.55639648438,0.473022460938,-0.190734863281
1534528729.560.880615234375,-0.5029296875,0.047607421875,1.63269042969,0.312805175781,-0.137329101562
1534528729.560.878662109375,-0.506591796875,0.046142578125,1.81579589844,0.396728515625,-0.48828125
1534528729.560.883056640625,-0.50341796875,0.044921875,1.80816650391,0.770568847656,-0.30517578125
1534528729.570.878173828125,-0.507568359375,0.056884765625,1.85394287109,0.617980957031,-0.335693359375
1534528729.570.88134765625,-0.507080078125,0.0546875,1.67083740234,0.526428222656,-0.442504882812
1534528729.570.8818359375,-0.50244140625,0.048095703125,1.64794921875,0.534057617188,-0.457763671875
1534528729.570.87890625,-0.5,0.045166015625,1.65557861328,0.465393066406,-0.442504882812
1534528729.570.87841796875,-0.50244140625,0.050048828125,1.50299072266,0.663757324219,-0.3662109375
1534528729.570.88134765625,-0.499267578125,0.04345703125,1.44958496094,0.572204589844,-0.404357910156
1534528729.570.8798828125,-0.499267578125,0.044677734375,1.54876708984,0.350952148438,-0.617980957031
1534528729.580.877197265625,-0.50439453125,0.0439453125,1.44958496094,0.67138671875,-0.373840332031
1534528729.580.879150390625,-0.502685546875,0.041748046875,1.55639648438,0.587463378906,-0.259399414062
1534528729.580.88134765625,-0.502685546875,0.0439453125,1.51824951172,0.442504882812,-0.350952148438
1534528729.580.880859375,-0.501708984375,0.043212890625,1.64031982422,0.640869140625,-0.541687011719
1534528729.580.88134765625,-0.498779296875,0.04248046875,1.48773193359,0.785827636719,-0.686645507812
1534528729.580.880859375,-0.49951171875,0.047607421875,1.59454345703,0.442504882812,-0.724792480469
1534528729.580.879638671875,-0.5009765625,0.052978515625,1.63269042969,0.259399414062,-0.67138671875
1534528729.590.87841796875,-0.503173828125,0.04931640625,1.73187255859,0.465393066406,-0.396728515625
1534528729.590.878173828125,-0.503662109375,0.04248046875,1.86157226562,0.205993652344,-0.434875488281
1534528729.590.878662109375,-0.50146484375,0.04248046875,1.48010253906,0.473022460938,-0.564575195312
1534528729.60.879150390625,-0.503173828125,0.0400390625,1.54113769531,0.350952148438,-0.457763671875
1534528729.60.881103515625,-0.50146484375,0.04638671875,1.57928466797,0.442504882812,-0.358581542969
1534528729.60.879638671875,-0.501220703125,0.04736328125,1.67846679688,0.503540039062,-0.335693359375
1534528729.60.8818359375,-0.50146484375,0.04638671875,1.64031982422,0.3662109375,-0.267028808594
1534528729.60.883544921875,-0.502685546875,0.045654296875,1.3427734375,0.274658203125,-0.205993652344
1534528729.60.880615234375,-0.50244140625,0.046142578125,1.48010253906,0.328063964844,-0.320434570312
1534528729.610.8779296875,-0.503662109375,0.04443359375,1.57928466797,0.480651855469,-0.251770019531
1534528729.610.882568359375,-0.504150390625,0.053466796875,1.73950195312,0.724792480469,-0.343322753906
1534528729.610.883056640625,-0.5048828125,0.046875,1.74713134766,0.381469726562,-0.343322753906
1534528729.610.880615234375,-0.506591796875,0.0458984375,1.56402587891,0.503540039062,-0.350952148438
1534528729.610.877685546875,-0.506591796875,0.0478515625,1.56402587891,0.816345214844,-0.221252441406
1534528729.610.882080078125,-0.50439453125,0.041259765625,1.35803222656,0.778198242188,-0.251770019531
1534528729.610.8828125,-0.501953125,0.043701171875,1.39617919922,0.686645507812,-0.465393066406
1534528729.610.87939453125,-0.5029296875,0.0517578125,1.41906738281,0.587463378906,-0.465393066406
1534528729.620.876953125,-0.5029296875,0.049072265625,1.40380859375,0.48828125,-0.801086425781
1534528729.620.879150390625,-0.49951171875,0.045166015625,1.42669677734,0.518798828125,-0.442504882812
1534528729.620.8818359375,-0.501220703125,0.045166015625,1.38092041016,0.526428222656,-0.602722167969
1534528729.620.880615234375,-0.501708984375,0.04833984375,1.48773193359,0.54931640625,-0.358581542969
1534528729.620.87890625,-0.50341796875,0.04736328125,1.56402587891,0.656127929688,-0.358581542969
1534528729.620.878173828125,-0.5048828125,0.0439453125,1.63269042969,0.480651855469,-0.587463378906
1534528729.630.8798828125,-0.50390625,0.04736328125,1.55639648438,0.335693359375,-0.289916992188
1534528729.630.88037109375,-0.498046875,0.047607421875,1.61743164062,0.511169433594,-0.236511230469
1534528729.630.882080078125,-0.502685546875,0.044677734375,1.54113769531,0.518798828125,-0.534057617188
1534528729.630.879638671875,-0.500244140625,0.046142578125,1.59454345703,0.473022460938,-0.48828125
1534528729.640.88037109375,-0.501220703125,0.048828125,1.57165527344,0.602722167969,-0.381469726562
1534528729.640.876708984375,-0.50048828125,0.047607421875,1.55639648438,0.679016113281,-0.267028808594
1534528729.640.8759765625,-0.50146484375,0.049560546875,1.59454345703,0.6103515625,-0.450134277344
1534528729.640.876953125,-0.50244140625,0.0458984375,1.46484375,0.572204589844,-0.442504882812
1534528729.640.87841796875,-0.504638671875,0.047607421875,1.45721435547,0.54931640625,-0.343322753906
1534528729.640.880615234375,-0.5048828125,0.04345703125,1.69372558594,0.625610351562,-0.373840332031
1534528729.640.87939453125,-0.504150390625,0.046875,1.708984375,0.526428222656,-0.442504882812
1534528729.640.88134765625,-0.501953125,0.04443359375,1.62506103516,0.617980957031,-0.244140625
1534528729.640.8818359375,-0.504150390625,0.04736328125,1.55639648438,0.564575195312,-0.244140625
1534528729.650.88037109375,-0.50390625,0.049560546875,1.55639648438,0.6103515625,-0.473022460938
1534528729.650.8779296875,-0.50341796875,0.044677734375,1.44958496094,0.511169433594,-0.518798828125
1534528729.650.880859375,-0.499267578125,0.046142578125,1.51824951172,0.42724609375,-0.434875488281
1534528729.650.8828125,-0.503662109375,0.040283203125,1.73187255859,0.633239746094,-0.389099121094
1534528729.650.882080078125,-0.50732421875,0.041748046875,1.66320800781,0.534057617188,-0.091552734375
1534528729.650.88134765625,-0.50341796875,0.047607421875,1.70135498047,0.350952148438,-0.137329101562
1534528729.660.880126953125,-0.501220703125,0.050537109375,1.64794921875,0.42724609375,-0.434875488281
1534528729.660.880615234375,-0.50244140625,0.048828125,1.48773193359,0.473022460938,-0.648498535156
1534528729.660.880615234375,-0.500732421875,0.048583984375,1.41906738281,0.3662109375,-0.564575195312
1534528729.660.88134765625,-0.500244140625,0.046630859375,1.65557861328,0.282287597656,-0.534057617188
1534528729.660.8798828125,-0.50048828125,0.046875,1.65557861328,0.534057617188,-0.42724609375
1534528729.660.87841796875,-0.50146484375,0.04736328125,1.51824951172,0.701904296875,-0.251770019531
1534528729.670.884033203125,-0.50439453125,0.040283203125,1.54876708984,0.595092773438,-0.190734863281
1534528729.670.87939453125,-0.503662109375,0.048095703125,1.39617919922,0.442504882812,-0.350952148438
1534528729.670.881103515625,-0.501708984375,0.05126953125,1.57165527344,0.350952148438,-0.312805175781
1534528729.670.879150390625,-0.501953125,0.05224609375,1.65557861328,0.244140625,-0.373840332031
1534528729.670.8818359375,-0.501220703125,0.04052734375,1.47247314453,0.312805175781,-0.350952148438
1534528729.670.8837890625,-0.50146484375,0.039306640625,1.45721435547,0.389099121094,-0.480651855469
1534528729.670.88037109375,-0.50390625,0.0419921875,1.41906738281,0.228881835938,-0.480651855469
1534528729.670.879638671875,-0.504638671875,0.041015625,1.56402587891,0.465393066406,-0.450134277344
1534528729.680.88134765625,-0.502197265625,0.041015625,1.708984375,0.747680664062,-0.350952148438
1534528729.680.881591796875,-0.506591796875,0.044677734375,1.62506103516,0.396728515625,-0.396728515625
1534528729.680.8818359375,-0.50634765625,0.043701171875,1.67083740234,0.518798828125,-0.267028808594
1534528729.680.88232421875,-0.50537109375,0.044189453125,1.75476074219,0.480651855469,-0.358581542969
1534528729.680.880859375,-0.502197265625,0.044677734375,1.74713134766,0.419616699219,-0.457763671875
1534528729.690.877197265625,-0.5,0.044189453125,1.59454345703,0.602722167969,-0.350952148438
1534528729.690.881591796875,-0.50048828125,0.045166015625,1.38854980469,0.694274902344,-0.396728515625
1534528729.690.881591796875,-0.50146484375,0.045654296875,1.56402587891,0.625610351562,-0.54931640625
1534528729.690.8818359375,-0.501708984375,0.04833984375,1.76239013672,0.495910644531,-0.602722167969
1534528729.690.8818359375,-0.501708984375,0.047119140625,1.54876708984,0.450134277344,-0.480651855469
1534528729.690.8828125,-0.499755859375,0.050048828125,1.60980224609,0.480651855469,-0.556945800781
1534528729.690.88525390625,-0.50390625,0.0478515625,1.70135498047,0.572204589844,-0.503540039062
1534528729.70.877197265625,-0.502197265625,0.04736328125,1.708984375,0.396728515625,-0.3662109375
1534528729.70.88330078125,-0.498779296875,0.042236328125,1.63269042969,0.778198242188,-0.434875488281
1534528729.70.879638671875,-0.50048828125,0.0400390625,1.52587890625,0.816345214844,-0.495910644531
1534528729.70.8798828125,-0.502197265625,0.04638671875,1.26647949219,0.67138671875,-0.411987304688
1534528729.70.882080078125,-0.499755859375,0.049560546875,1.51824951172,0.640869140625,-0.228881835938
1534528729.70.88037109375,-0.505859375,0.04736328125,1.80053710938,0.480651855469,-0.282287597656
1534528729.70.879150390625,-0.504150390625,0.045654296875,1.54876708984,0.450134277344,-0.411987304688
1534528729.710.880126953125,-0.50244140625,0.04541015625,1.57165527344,0.434875488281,-0.465393066406
1534528729.710.87890625,-0.501953125,0.048095703125,1.57928466797,0.518798828125,-0.518798828125
1534528729.710.87744140625,-0.5048828125,0.04150390625,1.47247314453,0.656127929688,-0.648498535156
1534528729.710.87939453125,-0.500732421875,0.043701171875,1.62506103516,0.640869140625,-0.587463378906
1534528729.720.881591796875,-0.501708984375,0.04638671875,1.69372558594,0.434875488281,-0.480651855469
1534528729.720.884765625,-0.498779296875,0.048095703125,1.62506103516,0.579833984375,-0.6103515625
1534528729.720.87890625,-0.50244140625,0.052490234375,1.56402587891,0.617980957031,-0.541687011719
1534528729.720.878173828125,-0.50048828125,0.046142578125,1.48773193359,0.411987304688,-0.389099121094
1534528729.720.87890625,-0.50146484375,0.041259765625,1.59454345703,0.564575195312,-0.251770019531
1534528729.720.87939453125,-0.49853515625,0.04833984375,1.8310546875,0.656127929688,-0.419616699219
1534528729.720.87841796875,-0.501220703125,0.049560546875,1.69372558594,0.572204589844,-0.633239746094
1534528729.720.879638671875,-0.501708984375,0.05029296875,1.45721435547,0.442504882812,-0.30517578125
1534528729.730.880859375,-0.501953125,0.04931640625,1.40380859375,0.419616699219,-0.144958496094
1534528729.730.88134765625,-0.50146484375,0.0478515625,1.50299072266,0.595092773438,-0.328063964844
1534528729.730.88330078125,-0.5009765625,0.045654296875,1.44195556641,0.709533691406,-0.587463378906
1534528729.730.883056640625,-0.5009765625,0.046875,1.35803222656,0.694274902344,-0.54931640625
1534528729.730.8818359375,-0.502197265625,0.046142578125,1.65557861328,0.54931640625,-0.190734863281
1534528729.730.880615234375,-0.505859375,0.053466796875,1.59454345703,0.465393066406,-0.160217285156
1534528729.730.878662109375,-0.5068359375,0.051025390625,1.44195556641,0.503540039062,-0.343322753906
1534528729.740.880615234375,-0.505615234375,0.044677734375,1.60217285156,0.67138671875,-0.450134277344
1534528729.740.880615234375,-0.502197265625,0.04736328125,1.40380859375,0.648498535156,-0.473022460938
1534528729.740.877197265625,-0.498779296875,0.045166015625,1.60217285156,0.709533691406,-0.328063964844
1534528729.740.87939453125,-0.498291015625,0.044189453125,1.52587890625,0.617980957031,-0.442504882812
1534528729.740.88232421875,-0.499755859375,0.04150390625,1.64031982422,0.602722167969,-0.67138671875
1534528729.750.87939453125,-0.5009765625,0.052490234375,1.51062011719,0.587463378906,-0.595092773438
1534528729.750.880126953125,-0.501220703125,0.049560546875,1.64794921875,0.717163085938,-0.465393066406
1534528729.750.88134765625,-0.50341796875,0.04541015625,1.72424316406,0.473022460938,-0.480651855469
