CSV format: Accelerometer x value, acclerometer y value, accelerometer z value, gyroscope x value, gyroscope y value, gyroscope z value
Sample frequency: 100Hz
1534597225.250.95654296875,-0.3662109375,-0.003662109375,1.46484375,0.556945800781,-0.289916992188
1534597225.250.953125,-0.36279296875,-0.006103515625,1.46484375,0.694274902344,-0.465393066406
1534597225.260.960693359375,-0.3662109375,-0.004150390625,1.53350830078,0.503540039062,-0.259399414062
1534597225.260.95458984375,-0.365966796875,0.002197265625,1.38854980469,0.648498535156,-0.114440917969
1534597225.260.956298828125,-0.36572265625,-0.00146484375,1.32751464844,0.648498535156,-0.289916992188
1534597225.260.955078125,-0.36767578125,0.000244140625,1.42669677734,0.473022460938,-0.160217285156
1534597225.260.956787109375,-0.364990234375,-0.0029296875,1.44958496094,0.373840332031,-0.259399414062
1534597225.260.952880859375,-0.364990234375,-0.00244140625,1.54876708984,0.679016113281,-0.205993652344
1534597225.270.953369140625,-0.366455078125,-0.005126953125,1.47247314453,0.404357910156,-0.251770019531
1534597225.270.953369140625,-0.365478515625,-0.007568359375,1.52587890625,0.06103515625,-0.350952148438
1534597225.270.95361328125,-0.363525390625,-0.002685546875,1.53350830078,0.381469726562,-0.54931640625
1534597225.270.953857421875,-0.364990234375,-0.001220703125,1.48773193359,0.602722167969,-0.411987304688
1534597225.270.95654296875,-0.3671875,-0.001953125,1.22833251953,0.694274902344,-0.259399414062
1534597225.270.95654296875,-0.3671875,-0.001953125,1.17492675781,0.572204589844,-0.129699707031
1534597225.270.957275390625,-0.366455078125,-0.001953125,1.39617919922,0.518798828125,-0.06103515625
1534597225.270.95849609375,-0.3642578125,-0.002685546875,1.19781494141,0.404357910156,-0.091552734375
1534597225.270.9609375,-0.36376953125,-0.004638671875,1.19781494141,0.42724609375,-0.274658203125
1534597225.280.95947265625,-0.365234375,0.000244140625,1.76239013672,0.518798828125,-0.465393066406
1534597225.280.956787109375,-0.3642578125,0.0,1.57165527344,0.579833984375,-0.297546386719
1534597225.280.95556640625,-0.364990234375,0.001953125,1.28173828125,0.595092773438,-0.221252441406
1534597225.280.9560546875,-0.365966796875,0.006103515625,1.31225585938,0.450134277344,-0.236511230469
1534597225.280.95703125,-0.365966796875,0.00439453125,1.52587890625,0.389099121094,-0.404357910156
1534597225.290.953369140625,-0.3671875,-0.002197265625,1.60217285156,0.503540039062,-0.434875488281
1534597225.290.95361328125,-0.363525390625,-0.001708984375,1.51824951172,0.816345214844,-0.213623046875
1534597225.290.955322265625,-0.366455078125,-0.0029296875,1.42669677734,0.686645507812,-0.358581542969
1534597225.290.955322265625,-0.367919921875,-0.007080078125,1.41143798828,0.709533691406,-0.389099121094
1534597225.290.952392578125,-0.36865234375,-0.0068359375,1.45721435547,0.648498535156,-0.160217285156
1534597225.30.9541015625,-0.365478515625,-0.004150390625,1.50299072266,0.518798828125,-0.442504882812
1534597225.30.958251953125,-0.367919921875,-0.003173828125,1.59454345703,0.381469726562,-0.556945800781
1534597225.30.952880859375,-0.37060546875,-0.0009765625,1.56402587891,0.244140625,-0.503540039062
1534597225.30.9560546875,-0.369384765625,-0.000244140625,1.54876708984,0.389099121094,-0.335693359375
1534597225.30.95703125,-0.364990234375,0.001708984375,1.61743164062,0.587463378906,-0.289916992188
1534597225.310.95556640625,-0.36328125,0.0009765625,1.61743164062,0.6103515625,-0.526428222656
1534597225.310.95458984375,-0.366943359375,-0.000732421875,1.43432617188,0.617980957031,-0.625610351562
1534597225.310.954345703125,-0.36474609375,-0.001220703125,1.40380859375,0.747680664062,-0.640869140625
1534597225.310.95458984375,-0.364501953125,-0.00390625,1.50299072266,0.54931640625,-0.312805175781
1534597225.310.95849609375,-0.362060546875,-0.001708984375,1.54113769531,0.770568847656,-0.0991821289062
1534597225.310.956787109375,-0.36279296875,-0.00048828125,1.38092041016,0.617980957031,-0.091552734375
1534597225.310.9541015625,-0.364013671875,0.001708984375,1.38092041016,0.534057617188,-0.457763671875
1534597225.320.9541015625,-0.365966796875,0.0,1.57165527344,0.694274902344,-0.221252441406
1534597225.320.953369140625,-0.36572265625,0.000732421875,1.56402587891,0.625610351562,-0.320434570312
1534597225.320.954833984375,-0.36474609375,-0.003173828125,1.45721435547,0.434875488281,-0.526428222656
1534597225.320.95703125,-0.366455078125,-0.00244140625,1.46484375,0.434875488281,-0.411987304688
1534597225.320.955810546875,-0.367431640625,-0.0048828125,1.57165527344,0.625610351562,-0.473022460938
1534597225.320.953369140625,-0.36962890625,-0.005126953125,1.54876708984,0.511169433594,-0.297546386719
1534597225.330.9560546875,-0.36669921875,-0.00439453125,1.36566162109,0.755310058594,-0.236511230469
1534597225.330.95458984375,-0.366943359375,0.0,1.48773193359,0.6103515625,-0.358581542969
1534597225.330.95263671875,-0.36865234375,-0.0009765625,1.73187255859,0.526428222656,-0.152587890625
1534597225.330.95166015625,-0.367919921875,-0.0029296875,1.78527832031,0.411987304688,-0.198364257812
1534597225.330.955810546875,-0.365478515625,0.009521484375,1.64794921875,0.495910644531,-0.54931640625
1534597225.340.95654296875,-0.365478515625,-0.000244140625,1.26647949219,0.755310058594,-0.3662109375
1534597225.340.95556640625,-0.363525390625,-0.001953125,1.43432617188,0.328063964844,-0.434875488281
1534597225.340.955322265625,-0.365234375,-0.005615234375,1.74713134766,0.30517578125,-0.48828125
1534597225.340.9560546875,-0.36181640625,0.00341796875,1.67846679688,0.373840332031,-0.30517578125
1534597225.340.95361328125,-0.363525390625,0.00390625,1.55639648438,0.465393066406,-0.343322753906
1534597225.340.9541015625,-0.364013671875,0.002197265625,1.41906738281,0.526428222656,-0.480651855469
1534597225.340.953369140625,-0.363037109375,-0.001953125,1.35040283203,0.511169433594,-0.297546386719
1534597225.340.9521484375,-0.361083984375,-0.002197265625,1.80053710938,0.251770019531,-0.198364257812
1534597225.340.952880859375,-0.364501953125,-0.00244140625,1.71661376953,0.320434570312,-0.228881835938
1534597225.350.95361328125,-0.364013671875,-0.0029296875,1.44958496094,0.48828125,-0.236511230469
1534597225.350.9560546875,-0.36474609375,-0.000732421875,1.57165527344,0.701904296875,-0.251770019531
1534597225.350.95458984375,-0.363525390625,-0.003173828125,1.54876708984,0.67138671875,-0.457763671875
1534597225.350.953857421875,-0.3642578125,-0.006103515625,1.55639648438,0.709533691406,-0.534057617188
1534597225.350.953125,-0.365478515625,-0.005615234375,1.64031982422,0.717163085938,-0.541687011719
1534597225.350.955322265625,-0.364990234375,-0.001953125,1.51824951172,0.724792480469,-0.495910644531
1534597225.350.956298828125,-0.36669921875,-0.001708984375,1.31988525391,0.694274902344,-0.564575195312
1534597225.350.956298828125,-0.36669921875,-0.001708984375,1.38092041016,0.747680664062,-0.358581542969
1534597225.350.955078125,-0.365234375,0.0,1.50299072266,0.747680664062,-0.465393066406
1534597225.350.956298828125,-0.36279296875,-0.005615234375,1.66320800781,0.648498535156,-0.534057617188
1534597225.360.9560546875,-0.365234375,-0.006103515625,1.54113769531,0.518798828125,-0.495910644531
1534597225.360.956298828125,-0.369140625,-0.005859375,1.65557861328,0.694274902344,-0.6103515625
1534597225.360.95751953125,-0.369873046875,0.0009765625,1.63269042969,0.717163085938,-0.602722167969
1534597225.360.955322265625,-0.36669921875,0.00244140625,1.54113769531,0.770568847656,-0.465393066406
1534597225.360.955322265625,-0.36669921875,0.00244140625,1.49536132812,0.831604003906,-0.419616699219
1534597225.360.95654296875,-0.36328125,-0.00244140625,1.48773193359,0.79345703125,-0.389099121094
1534597225.360.958251953125,-0.3623046875,-0.005126953125,1.64794921875,0.770568847656,-0.541687011719
1534597225.360.954833984375,-0.3671875,-0.001708984375,1.64031982422,0.450134277344,-0.762939453125
1534597225.360.95263671875,-0.36572265625,0.002197265625,1.51062011719,0.419616699219,-0.625610351562
1534597225.360.953857421875,-0.36181640625,-0.002197265625,1.57165527344,0.419616699219,-0.511169433594
1534597225.370.9541015625,-0.367919921875,-0.00537109375,1.56402587891,0.518798828125,-0.381469726562
1534597225.370.955078125,-0.365966796875,-0.0009765625,1.51062011719,0.785827636719,-0.350952148438
1534597225.370.9521484375,-0.367431640625,-0.004150390625,1.57165527344,0.801086425781,-0.236511230469
1534597225.370.95166015625,-0.366943359375,-0.002685546875,1.48010253906,0.755310058594,-0.259399414062
1534597225.370.952392578125,-0.365234375,0.001708984375,1.3427734375,0.579833984375,-0.473022460938
1534597225.370.953369140625,-0.36328125,-0.0009765625,1.43432617188,0.282287597656,-0.709533691406
1534597225.370.955078125,-0.361083984375,-0.000244140625,1.47247314453,0.3662109375,-0.686645507812
1534597225.370.953857421875,-0.363037109375,0.002197265625,1.41906738281,0.373840332031,-0.617980957031
1534597225.370.9560546875,-0.361572265625,0.002197265625,1.41143798828,0.572204589844,-0.381469726562
1534597225.370.957763671875,-0.361328125,0.002197265625,1.57165527344,0.785827636719,-0.251770019531
1534597225.380.95556640625,-0.36328125,-0.001220703125,1.72424316406,0.740051269531,-0.129699707031
1534597225.380.955322265625,-0.36572265625,0.0,1.51062011719,0.625610351562,-0.167846679688
1534597225.380.95556640625,-0.3662109375,0.003662109375,1.63269042969,0.518798828125,-0.3662109375
1534597225.380.95703125,-0.3642578125,0.002197265625,1.55639648438,0.411987304688,-0.518798828125
1534597225.380.957275390625,-0.3642578125,0.000732421875,1.54876708984,0.526428222656,-0.389099121094
1534597225.380.956787109375,-0.363037109375,-0.001220703125,1.63269042969,0.556945800781,-0.343322753906
1534597225.380.953125,-0.36376953125,-0.00146484375,1.73187255859,0.3662109375,-0.54931640625
1534597225.380.95068359375,-0.366455078125,-0.00146484375,1.76239013672,0.244140625,-0.572204589844
1534597225.380.954833984375,-0.3662109375,-0.001708984375,1.52587890625,0.343322753906,-0.572204589844
1534597225.380.956298828125,-0.36572265625,-0.00048828125,1.47247314453,0.511169433594,-0.457763671875
1534597225.390.954833984375,-0.36572265625,-0.006103515625,1.53350830078,0.579833984375,-0.289916992188
1534597225.390.9599609375,-0.3671875,-0.00927734375,1.48010253906,0.373840332031,-0.282287597656
1534597225.390.953857421875,-0.366455078125,-0.00390625,1.53350830078,0.534057617188,-0.213623046875
1534597225.390.953369140625,-0.369873046875,-0.001220703125,1.54113769531,0.465393066406,-0.30517578125
1534597225.390.95263671875,-0.364990234375,-0.00390625,1.57928466797,0.518798828125,-0.289916992188
1534597225.390.9521484375,-0.36572265625,-0.006591796875,1.47247314453,0.503540039062,-0.328063964844
1534597225.390.95263671875,-0.364501953125,-0.002197265625,1.67083740234,0.457763671875,-0.30517578125
1534597225.390.95263671875,-0.364990234375,0.00244140625,1.708984375,0.320434570312,-0.442504882812
1534597225.40.952880859375,-0.369140625,-0.003173828125,1.60980224609,0.503540039062,-0.312805175781
1534597225.40.95703125,-0.369384765625,-0.007568359375,1.40380859375,0.648498535156,-0.205993652344
1534597225.40.9609375,-0.366455078125,-0.001220703125,1.47247314453,0.633239746094,-0.328063964844
1534597225.40.960205078125,-0.365478515625,0.001708984375,1.39617919922,0.267028808594,-0.450134277344
1534597225.40.95654296875,-0.365478515625,-0.005126953125,1.48773193359,0.3662109375,-0.289916992188
1534597225.40.95654296875,-0.3671875,-0.00537109375,1.64794921875,0.556945800781,-0.190734863281
1534597225.40.955810546875,-0.3671875,-0.004638671875,1.57165527344,0.450134277344,-0.160217285156
1534597225.40.9541015625,-0.365966796875,-0.004150390625,1.47247314453,0.480651855469,-0.343322753906
1534597225.40.95703125,-0.365478515625,-0.0009765625,1.53350830078,0.541687011719,-0.396728515625
1534597225.410.95849609375,-0.366455078125,-0.002685546875,1.61743164062,0.54931640625,-0.350952148438
1534597225.410.95703125,-0.36572265625,-0.00439453125,1.50299072266,0.473022460938,-0.328063964844
1534597225.410.956298828125,-0.366455078125,-0.001953125,1.37329101562,0.465393066406,-0.6103515625
1534597225.410.956787109375,-0.366943359375,-0.00146484375,1.39617919922,0.396728515625,-0.518798828125
1534597225.410.95458984375,-0.367431640625,-0.001708984375,1.49536132812,0.526428222656,-0.473022460938
1534597225.410.95166015625,-0.36962890625,-0.00634765625,1.56402587891,0.404357910156,-0.42724609375
1534597225.410.957763671875,-0.370361328125,-0.0068359375,1.75476074219,0.419616699219,-0.320434570312
1534597225.410.9580078125,-0.3701171875,-0.00390625,1.61743164062,0.579833984375,-0.564575195312
1534597225.410.955078125,-0.366943359375,-0.00439453125,1.51824951172,0.785827636719,-0.48828125
1534597225.420.955078125,-0.366455078125,-0.00244140625,1.45721435547,0.526428222656,-0.419616699219
1534597225.420.955322265625,-0.3662109375,0.000244140625,1.26647949219,0.343322753906,-0.587463378906
1534597225.420.95556640625,-0.36669921875,0.001708984375,1.25885009766,0.434875488281,-0.640869140625
1534597225.420.9560546875,-0.364501953125,-0.000732421875,1.50299072266,0.572204589844,-0.541687011719
1534597225.420.95556640625,-0.36669921875,-0.0078125,1.48010253906,0.648498535156,-0.343322753906
1534597225.420.9560546875,-0.368896484375,-0.009765625,1.52587890625,0.419616699219,-0.419616699219
1534597225.420.957763671875,-0.366943359375,-0.002197265625,1.50299072266,0.495910644531,-0.587463378906
1534597225.420.95556640625,-0.367431640625,-0.0009765625,1.33514404297,0.648498535156,-0.564575195312
1534597225.420.956298828125,-0.366455078125,-0.003662109375,1.51062011719,0.732421875,-0.442504882812
1534597225.430.95654296875,-0.367431640625,-0.001708984375,1.708984375,0.816345214844,-0.587463378906
1534597225.430.95556640625,-0.3671875,0.00048828125,1.73187255859,0.8544921875,-0.717163085938
1534597225.430.9560546875,-0.365234375,-0.004150390625,1.61743164062,0.694274902344,-0.701904296875
1534597225.430.958740234375,-0.365478515625,-0.007568359375,1.57165527344,0.6103515625,-0.54931640625
1534597225.430.956298828125,-0.36279296875,-0.00341796875,1.51062011719,0.473022460938,-0.312805175781
1534597225.430.952392578125,-0.364990234375,-0.002685546875,1.36566162109,0.442504882812,-0.389099121094
1534597225.430.954833984375,-0.365234375,-0.002197265625,1.48773193359,0.503540039062,-0.389099121094
1534597225.430.955322265625,-0.3623046875,0.000732421875,1.43432617188,0.320434570312,-0.175476074219
1534597225.430.952880859375,-0.365234375,-0.002197265625,1.44195556641,0.526428222656,-0.0534057617188
1534597225.430.95263671875,-0.367431640625,-0.001220703125,1.59454345703,0.648498535156,-0.236511230469
1534597225.440.9541015625,-0.366943359375,-0.0029296875,1.67846679688,0.556945800781,-0.42724609375
1534597225.440.955078125,-0.36669921875,-0.006591796875,1.61743164062,0.480651855469,-0.350952148438
1534597225.440.9560546875,-0.36865234375,-0.0009765625,1.45721435547,0.48828125,-0.389099121094
1534597225.450.9580078125,-0.36767578125,0.0029296875,1.76239013672,0.640869140625,-0.091552734375
1534597225.450.955810546875,-0.36474609375,-0.0029296875,1.45721435547,0.419616699219,-0.495910644531
1534597225.450.956298828125,-0.367919921875,-0.00341796875,1.48010253906,0.289916992188,-0.694274902344
1534597225.450.9580078125,-0.366943359375,-0.003662109375,1.55639648438,0.503540039062,-0.54931640625
1534597225.460.9580078125,-0.364990234375,-0.00244140625,1.80053710938,0.48828125,-0.579833984375
1534597225.460.957275390625,-0.366455078125,-0.01171875,1.64031982422,0.625610351562,-0.404357910156
1534597225.460.9541015625,-0.369140625,-0.00390625,1.49536132812,0.587463378906,-0.198364257812
1534597225.460.954345703125,-0.371337890625,-0.000244140625,1.44958496094,0.526428222656,-0.396728515625
1534597225.460.955322265625,-0.366943359375,0.0009765625,1.54876708984,0.602722167969,-0.885009765625
1534597225.460.955810546875,-0.365966796875,0.00390625,1.69372558594,0.54931640625,-0.79345703125
1534597225.460.95068359375,-0.369873046875,-0.005126953125,1.59454345703,0.457763671875,-0.434875488281
1534597225.470.951171875,-0.3671875,0.000244140625,1.77764892578,0.694274902344,-0.747680664062
1534597225.470.95361328125,-0.36572265625,-0.00244140625,1.51062011719,0.755310058594,-0.862121582031
1534597225.470.951171875,-0.3662109375,-0.00537109375,1.54113769531,0.831604003906,-0.816345214844
1534597225.470.954345703125,-0.3603515625,-0.004150390625,1.38092041016,0.67138671875,-0.686645507812
1534597225.470.95458984375,-0.361572265625,-0.005615234375,1.35803222656,0.846862792969,-0.877380371094
1534597225.480.953125,-0.36962890625,-0.0029296875,1.52587890625,0.602722167969,-0.579833984375
1534597225.480.955810546875,-0.3662109375,-0.0048828125,1.48010253906,0.625610351562,-0.404357910156
1534597225.480.955322265625,-0.3671875,-0.0048828125,1.49536132812,0.701904296875,-0.564575195312
1534597225.480.954833984375,-0.366943359375,-0.0048828125,1.43432617188,0.358581542969,-0.54931640625
1534597225.480.956787109375,-0.36572265625,0.00146484375,1.45721435547,0.755310058594,-0.480651855469
1534597225.490.95556640625,-0.365966796875,0.002685546875,1.53350830078,0.381469726562,-0.312805175781
1534597225.490.95361328125,-0.367919921875,-0.001708984375,1.38854980469,0.343322753906,-0.312805175781
1534597225.490.951416015625,-0.364990234375,-0.001953125,1.46484375,0.450134277344,-0.381469726562
1534597225.490.955078125,-0.363525390625,-0.002685546875,1.56402587891,0.503540039062,-0.373840332031
1534597225.490.953125,-0.36572265625,0.0,1.30462646484,0.54931640625,-0.236511230469
1534597225.50.955078125,-0.365478515625,-0.001708984375,1.55639648438,0.54931640625,-0.335693359375
1534597225.50.9521484375,-0.365966796875,-0.0029296875,1.30462646484,0.312805175781,-0.450134277344
1534597225.50.95361328125,-0.364501953125,-0.006591796875,1.35803222656,0.633239746094,-0.335693359375
1534597225.50.95458984375,-0.36767578125,-0.000732421875,1.44958496094,0.526428222656,-0.251770019531
1534597225.50.95556640625,-0.367919921875,-0.003173828125,1.78527832031,0.404357910156,-0.0839233398438
1534597225.50.95654296875,-0.36474609375,-0.005859375,1.83868408203,0.411987304688,-0.198364257812
1534597225.50.960693359375,-0.366455078125,-0.002197265625,1.35040283203,0.3662109375,-0.450134277344
1534597225.50.958740234375,-0.3671875,-0.00439453125,1.28173828125,0.42724609375,-0.343322753906
1534597225.510.955322265625,-0.3662109375,-0.005126953125,1.28173828125,0.656127929688,-0.129699707031
1534597225.510.954833984375,-0.364990234375,-0.00537109375,1.36566162109,0.823974609375,-0.0686645507812
1534597225.510.957763671875,-0.363525390625,-0.006103515625,1.51824951172,0.770568847656,-0.0762939453125
1534597225.510.95849609375,-0.36669921875,-0.00244140625,1.55639648438,0.694274902344,-0.175476074219
1534597225.510.955322265625,-0.3671875,-0.00146484375,1.44195556641,0.465393066406,-0.18310546875
1534597225.510.95556640625,-0.36474609375,-0.001953125,1.44958496094,0.0762939453125,-0.251770019531
1534597225.510.955810546875,-0.3662109375,-0.00390625,1.36566162109,0.0686645507812,-0.190734863281
1534597225.510.953857421875,-0.3662109375,0.001220703125,1.52587890625,0.335693359375,-0.129699707031
1534597225.510.954833984375,-0.3662109375,0.003173828125,1.66320800781,0.541687011719,-0.289916992188
1534597225.520.952392578125,-0.3642578125,0.000244140625,1.50299072266,0.648498535156,-0.457763671875
1534597225.520.953369140625,-0.36328125,-0.0009765625,1.82342529297,0.656127929688,-0.1220703125
1534597225.520.9580078125,-0.367919921875,-0.00146484375,1.70135498047,0.823974609375,-0.42724609375
1534597225.520.9560546875,-0.36767578125,-0.001953125,1.55639648438,0.640869140625,-0.503540039062
1534597225.520.9541015625,-0.3681640625,-0.007080078125,1.60217285156,0.595092773438,-0.42724609375
1534597225.520.95654296875,-0.36572265625,-0.00439453125,1.48010253906,0.556945800781,-0.442504882812
1534597225.520.958251953125,-0.365966796875,-0.0009765625,1.54876708984,0.473022460938,-0.205993652344
1534597225.520.953857421875,-0.368896484375,-0.001953125,1.49536132812,0.30517578125,-0.473022460938
1534597225.530.950927734375,-0.368896484375,-0.00146484375,1.48010253906,0.419616699219,-0.679016113281
1534597225.530.953369140625,-0.368896484375,-0.001953125,1.51062011719,0.457763671875,-0.541687011719
1534597225.530.95263671875,-0.368408203125,-0.00048828125,1.39617919922,0.633239746094,-0.457763671875
1534597225.530.95166015625,-0.365478515625,-0.0009765625,1.35803222656,0.656127929688,-0.633239746094
1534597225.530.94970703125,-0.36962890625,0.001708984375,1.60980224609,0.579833984375,-0.762939453125
1534597225.530.95263671875,-0.364013671875,0.0,1.64794921875,0.54931640625,-0.526428222656
1534597225.530.953369140625,-0.366943359375,-0.001220703125,1.3427734375,0.755310058594,-0.3662109375
1534597225.530.95263671875,-0.367431640625,0.003662109375,1.26647949219,0.755310058594,-0.526428222656
1534597225.530.95458984375,-0.364013671875,0.0029296875,1.54113769531,0.572204589844,-0.640869140625
1534597225.530.953125,-0.365234375,-0.0009765625,1.61743164062,0.526428222656,-0.602722167969
1534597225.540.951416015625,-0.367431640625,-0.00048828125,1.39617919922,0.404357910156,-0.518798828125
1534597225.540.95458984375,-0.36767578125,-0.002685546875,1.25122070312,0.320434570312,-0.633239746094
1534597225.540.956787109375,-0.3671875,-0.00634765625,1.42669677734,0.434875488281,-0.740051269531
1534597225.540.955810546875,-0.36474609375,-0.005615234375,1.55639648438,0.503540039062,-0.602722167969
1534597225.540.9541015625,-0.361572265625,-0.00244140625,1.51062011719,0.473022460938,-0.572204589844
1534597225.540.956298828125,-0.364990234375,-0.00390625,1.51824951172,0.6103515625,-0.579833984375
1534597225.540.955810546875,-0.36572265625,-0.00244140625,1.46484375,0.701904296875,-0.617980957031
1534597225.540.955810546875,-0.3662109375,0.0,1.37329101562,0.572204589844,-0.648498535156
1534597225.540.960693359375,-0.36767578125,-0.006591796875,1.55639648438,0.79345703125,-0.587463378906
1534597225.550.958984375,-0.3662109375,-0.007080078125,1.57165527344,0.831604003906,-0.511169433594
1534597225.550.955322265625,-0.36572265625,-0.00634765625,1.51824951172,0.724792480469,-0.450134277344
1534597225.550.95849609375,-0.36474609375,-0.004150390625,1.53350830078,0.701904296875,-0.396728515625
1534597225.550.958984375,-0.36328125,0.003173828125,1.57165527344,0.579833984375,-0.350952148438
1534597225.550.955810546875,-0.362548828125,0.002197265625,1.54113769531,0.808715820312,-0.564575195312
1534597225.550.955810546875,-0.364013671875,-0.002685546875,1.49536132812,0.801086425781,-0.572204589844
1534597225.550.956787109375,-0.36474609375,-0.00048828125,1.45721435547,0.48828125,-0.373840332031
1534597225.550.95654296875,-0.36572265625,0.000732421875,1.56402587891,0.480651855469,-0.320434570312
1534597225.550.953857421875,-0.367431640625,0.0,1.60217285156,0.518798828125,-0.42724609375
1534597225.550.954833984375,-0.36669921875,-0.002685546875,1.45721435547,0.42724609375,-0.457763671875
1534597225.560.95751953125,-0.366943359375,-0.0029296875,1.66320800781,0.419616699219,-0.495910644531
1534597225.560.957275390625,-0.368408203125,-0.00341796875,1.81579589844,0.457763671875,-0.511169433594
1534597225.560.954833984375,-0.364990234375,-0.01025390625,1.69372558594,0.518798828125,-0.442504882812
1534597225.560.955078125,-0.364501953125,-0.00634765625,1.40380859375,0.770568847656,-0.564575195312
1534597225.560.955810546875,-0.36669921875,-0.00439453125,1.51062011719,0.762939453125,-0.480651855469
1534597225.560.952880859375,-0.365478515625,0.000244140625,1.63269042969,0.740051269531,-0.389099121094
1534597225.560.951416015625,-0.366943359375,0.0029296875,1.50299072266,0.640869140625,-0.328063964844
1534597225.560.952392578125,-0.367919921875,-0.008544921875,1.63269042969,0.602722167969,-0.328063964844
1534597225.560.954345703125,-0.367431640625,-0.007568359375,1.74713134766,0.579833984375,-0.42724609375
1534597225.560.953369140625,-0.36669921875,-0.00146484375,1.67846679688,0.572204589844,-0.48828125
1534597225.570.95751953125,-0.36669921875,0.00341796875,1.61743164062,0.350952148438,-0.572204589844
1534597225.570.95849609375,-0.36669921875,0.002685546875,1.52587890625,0.320434570312,-0.343322753906
1534597225.570.955078125,-0.364013671875,-0.005859375,1.46484375,0.411987304688,-0.30517578125
1534597225.570.954345703125,-0.36279296875,-0.002197265625,1.35803222656,0.526428222656,-0.289916992188
1534597225.570.953369140625,-0.363037109375,0.002685546875,1.44195556641,0.564575195312,-0.228881835938
1534597225.570.956787109375,-0.365234375,0.001708984375,1.48010253906,0.617980957031,-0.503540039062
1534597225.570.9541015625,-0.36572265625,0.00439453125,1.52587890625,0.595092773438,-0.595092773438
1534597225.570.955810546875,-0.369140625,0.000244140625,1.54113769531,0.67138671875,-0.335693359375
1534597225.570.9560546875,-0.370849609375,-0.002685546875,1.55639648438,0.633239746094,-0.350952148438
1534597225.580.95556640625,-0.367431640625,-0.00390625,1.67083740234,0.350952148438,-0.457763671875
1534597225.580.9560546875,-0.367431640625,-0.003173828125,1.61743164062,0.572204589844,-0.473022460938
1534597225.580.957275390625,-0.3662109375,-0.001953125,1.32751464844,0.617980957031,-0.587463378906
1534597225.580.955078125,-0.364501953125,-0.001708984375,1.54876708984,0.534057617188,-0.633239746094
1534597225.580.953369140625,-0.36474609375,0.000244140625,1.60980224609,0.404357910156,-0.473022460938
1534597225.580.955078125,-0.364013671875,-0.00244140625,1.67846679688,0.328063964844,-0.556945800781
1534597225.580.955810546875,-0.367431640625,-0.001708984375,1.67083740234,0.518798828125,-0.579833984375
1534597225.580.9521484375,-0.370849609375,-0.00048828125,1.60980224609,0.396728515625,-0.587463378906
1534597225.580.953369140625,-0.368896484375,-0.000732421875,1.54876708984,0.328063964844,-0.473022460938
1534597225.580.95654296875,-0.36865234375,-0.00048828125,1.64031982422,0.625610351562,-0.556945800781
1534597225.590.955810546875,-0.368408203125,0.00048828125,1.66320800781,0.732421875,-0.404357910156
1534597225.590.95654296875,-0.366943359375,-0.0029296875,1.57165527344,0.656127929688,-0.343322753906
1534597225.590.9560546875,-0.365478515625,0.003662109375,1.55639648438,0.480651855469,-0.358581542969
1534597225.590.95361328125,-0.364501953125,0.008056640625,1.54113769531,0.534057617188,-0.434875488281
1534597225.590.954345703125,-0.36474609375,0.000732421875,1.59454345703,0.694274902344,-0.30517578125
1534597225.590.954345703125,-0.36474609375,-0.0029296875,1.48010253906,0.694274902344,-0.312805175781
1534597225.590.951904296875,-0.36328125,-0.001708984375,1.44958496094,0.67138671875,-0.396728515625
1534597225.590.95556640625,-0.362060546875,-0.002197265625,1.54876708984,0.785827636719,-0.389099121094
1534597225.590.957763671875,-0.363037109375,-0.004150390625,1.68609619141,0.701904296875,-0.396728515625
1534597225.590.95361328125,-0.362548828125,-0.0048828125,1.77001953125,0.221252441406,-0.373840332031
1534597225.60.951904296875,-0.364013671875,-0.0009765625,1.72424316406,0.0686645507812,-0.434875488281
1534597225.60.951416015625,-0.366943359375,0.000244140625,1.5869140625,0.48828125,-0.526428222656
1534597225.60.95361328125,-0.363525390625,-0.002197265625,1.61743164062,0.686645507812,-0.694274902344
1534597225.60.954833984375,-0.3642578125,-0.008056640625,1.49536132812,0.701904296875,-0.419616699219
1534597225.60.955322265625,-0.36669921875,-0.00537109375,1.44195556641,0.579833984375,-0.251770019531
1534597225.60.955322265625,-0.36767578125,0.002685546875,1.47247314453,0.457763671875,-0.282287597656
1534597225.60.953857421875,-0.367919921875,0.000244140625,1.61743164062,0.473022460938,-0.213623046875
1534597225.610.9560546875,-0.364501953125,-0.0029296875,1.80816650391,0.54931640625,-0.259399414062
1534597225.620.954345703125,-0.364501953125,0.003662109375,1.36566162109,0.534057617188,-0.358581542969
1534597225.620.955810546875,-0.364013671875,-0.003662109375,1.48010253906,0.381469726562,-0.0991821289062
1534597225.620.957275390625,-0.3662109375,0.00048828125,1.45721435547,0.473022460938,-0.137329101562
1534597225.620.95556640625,-0.36669921875,-0.00048828125,1.38854980469,0.762939453125,-0.335693359375
1534597225.620.954833984375,-0.36328125,-0.00244140625,1.64031982422,0.762939453125,-0.259399414062
1534597225.620.956787109375,-0.363037109375,-0.00341796875,1.60980224609,0.556945800781,-0.213623046875
1534597225.620.955078125,-0.365478515625,-0.00146484375,1.69372558594,0.6103515625,-0.434875488281
1534597225.620.95361328125,-0.36572265625,0.00341796875,1.52587890625,0.495910644531,-0.465393066406
1534597225.630.955322265625,-0.364501953125,0.004638671875,1.38854980469,0.389099121094,-0.328063964844
1534597225.630.954345703125,-0.36572265625,-0.006103515625,1.55639648438,0.480651855469,-0.129699707031
1534597225.630.952880859375,-0.36376953125,-0.004638671875,1.41143798828,0.755310058594,-0.335693359375
1534597225.640.953125,-0.36328125,-0.00341796875,1.41906738281,0.656127929688,-0.480651855469
1534597225.640.95849609375,-0.365234375,-0.00244140625,1.45721435547,0.434875488281,-0.396728515625
1534597225.640.95458984375,-0.367919921875,-0.00146484375,1.37329101562,0.404357910156,-0.587463378906
1534597225.640.955322265625,-0.366943359375,0.00244140625,1.39617919922,0.473022460938,-0.282287597656
1534597225.640.9541015625,-0.364990234375,-0.00390625,1.62506103516,0.465393066406,-0.228881835938
1534597225.640.95263671875,-0.363037109375,-0.001708984375,1.3427734375,0.602722167969,-0.389099121094
1534597225.640.951904296875,-0.36865234375,-0.001708984375,1.39617919922,0.846862792969,-0.289916992188
1534597225.650.954833984375,-0.367919921875,-0.005859375,1.39617919922,0.587463378906,-0.396728515625
1534597225.650.95654296875,-0.364501953125,0.00244140625,1.42669677734,0.595092773438,-0.473022460938
1534597225.650.955322265625,-0.367919921875,-0.0048828125,1.56402587891,0.396728515625,-0.381469726562
1534597225.650.954345703125,-0.3681640625,0.0009765625,1.78527832031,0.701904296875,-0.48828125
1534597225.660.9541015625,-0.365478515625,0.00048828125,1.62506103516,0.67138671875,-0.404357910156
1534597225.660.956298828125,-0.366455078125,-0.00537109375,1.46484375,0.724792480469,-0.48828125
1534597225.660.958740234375,-0.36865234375,-0.004638671875,1.66320800781,0.808715820312,-0.503540039062
1534597225.660.95947265625,-0.3681640625,-0.0029296875,1.708984375,0.923156738281,-0.396728515625
1534597225.660.95361328125,-0.36572265625,-0.000732421875,1.41906738281,0.762939453125,-0.473022460938
1534597225.660.951416015625,-0.36572265625,-0.00146484375,1.53350830078,0.503540039062,-0.617980957031
1534597225.660.956298828125,-0.362548828125,-0.00146484375,1.42669677734,0.404357910156,-0.495910644531
1534597225.660.957275390625,-0.365234375,0.0,1.38092041016,0.465393066406,-0.373840332031
1534597225.670.952880859375,-0.3671875,0.001708984375,1.66320800781,0.686645507812,-0.404357910156
1534597225.670.951904296875,-0.365478515625,0.0029296875,1.49536132812,0.503540039062,-0.267028808594
1534597225.670.9541015625,-0.363525390625,-0.00244140625,1.44958496094,0.373840332031,-0.617980957031
1534597225.670.956298828125,-0.362548828125,-0.002197265625,1.708984375,0.6103515625,-0.54931640625
1534597225.670.954833984375,-0.364013671875,0.00048828125,1.87683105469,0.648498535156,-0.534057617188
1534597225.670.95361328125,-0.367431640625,-0.0029296875,1.63269042969,0.419616699219,-0.465393066406
1534597225.670.955322265625,-0.3662109375,-0.004150390625,1.32751464844,0.48828125,-0.404357910156
1534597225.670.95458984375,-0.363525390625,-0.00244140625,1.13677978516,0.297546386719,-0.289916992188
1534597225.670.953125,-0.363525390625,-0.00048828125,1.31225585938,0.343322753906,-0.274658203125
1534597225.680.955810546875,-0.365478515625,0.001953125,1.70135498047,0.495910644531,-0.297546386719
1534597225.680.9521484375,-0.366455078125,-0.0029296875,1.39617919922,0.785827636719,-0.343322753906
1534597225.680.9541015625,-0.365234375,-0.000244140625,1.53350830078,0.457763671875,-0.518798828125
1534597225.680.956298828125,-0.364990234375,0.0009765625,1.60980224609,0.30517578125,-0.267028808594
1534597225.680.955322265625,-0.3662109375,0.001708984375,1.54113769531,0.312805175781,-0.3662109375
1534597225.680.95458984375,-0.365966796875,-0.00146484375,1.68609619141,0.457763671875,-0.663757324219
1534597225.680.956787109375,-0.367919921875,-0.00048828125,1.83868408203,0.6103515625,-0.465393066406
1534597225.680.955078125,-0.37158203125,0.001953125,1.68609619141,0.640869140625,-0.320434570312
1534597225.690.954833984375,-0.371826171875,0.001953125,1.30462646484,0.587463378906,-0.205993652344
1534597225.690.956298828125,-0.369384765625,0.001220703125,1.36566162109,0.511169433594,-0.167846679688
1534597225.690.957275390625,-0.3681640625,0.00390625,1.53350830078,0.6103515625,-0.236511230469
1534597225.690.957275390625,-0.36767578125,0.004150390625,1.50299072266,0.656127929688,-0.450134277344
1534597225.690.952880859375,-0.365234375,-0.000244140625,1.32751464844,0.572204589844,-0.42724609375
1534597225.690.95654296875,-0.367919921875,-0.005126953125,1.64794921875,0.495910644531,-0.160217285156
1534597225.690.9560546875,-0.36572265625,-0.005859375,1.61743164062,0.701904296875,-0.213623046875
1534597225.690.954833984375,-0.366455078125,0.00048828125,1.64031982422,0.839233398438,-0.442504882812
1534597225.70.950439453125,-0.369140625,-0.001220703125,1.64794921875,0.625610351562,-0.564575195312
1534597225.70.950439453125,-0.3662109375,-0.007080078125,1.54113769531,0.648498535156,-0.389099121094
1534597225.70.953369140625,-0.364013671875,-0.0087890625,1.51062011719,0.541687011719,-0.274658203125
1534597225.70.956298828125,-0.36572265625,-0.005615234375,1.69372558594,0.679016113281,-0.42724609375
1534597225.70.95703125,-0.36572265625,-0.004638671875,1.57928466797,0.656127929688,-0.48828125
1534597225.70.955810546875,-0.363037109375,-0.006591796875,1.42669677734,0.54931640625,-0.564575195312
1534597225.70.955322265625,-0.362548828125,-0.005615234375,1.35803222656,0.679016113281,-0.633239746094
1534597225.70.95703125,-0.366943359375,-0.0048828125,1.41906738281,0.679016113281,-0.411987304688
1534597225.70.959228515625,-0.369384765625,-0.000244140625,1.48773193359,0.526428222656,-0.343322753906
1534597225.70.95703125,-0.3662109375,-0.00146484375,1.46484375,0.442504882812,-0.518798828125
1534597225.710.953125,-0.367431640625,-0.00537109375,1.37329101562,0.572204589844,-0.656127929688
1534597225.710.955810546875,-0.365478515625,-0.004150390625,1.53350830078,0.694274902344,-0.831604003906
1534597225.710.9580078125,-0.36279296875,0.001953125,1.54876708984,0.617980957031,-0.747680664062
1534597225.710.956298828125,-0.3662109375,0.003173828125,1.53350830078,0.648498535156,-0.572204589844
1534597225.710.955078125,-0.365478515625,0.001220703125,1.37329101562,0.762939453125,-0.602722167969
1534597225.710.953857421875,-0.36279296875,0.001220703125,1.32751464844,0.862121582031,-0.648498535156
1534597225.710.952880859375,-0.364013671875,0.000244140625,1.39617919922,0.808715820312,-0.656127929688
1534597225.710.95361328125,-0.36474609375,0.001953125,1.54876708984,0.526428222656,-0.579833984375
1534597225.710.95556640625,-0.363037109375,-0.001953125,1.62506103516,0.656127929688,-0.640869140625
1534597225.710.9599609375,-0.36083984375,-0.00634765625,1.43432617188,0.862121582031,-0.694274902344
1534597225.710.961181640625,-0.360595703125,-0.005126953125,1.44958496094,0.938415527344,-0.701904296875
1534597225.720.958251953125,-0.36767578125,0.0,1.51062011719,0.617980957031,-0.808715820312
1534597225.720.95703125,-0.37060546875,0.001953125,1.56402587891,0.473022460938,-0.701904296875
1534597225.720.95556640625,-0.36669921875,-0.00244140625,1.36566162109,0.518798828125,-0.556945800781
1534597225.720.954345703125,-0.366943359375,-0.001220703125,1.48773193359,0.640869140625,-0.625610351562
1534597225.720.955810546875,-0.36767578125,-0.001708984375,1.50299072266,0.79345703125,-0.694274902344
1534597225.720.954833984375,-0.364501953125,-0.00390625,1.49536132812,0.732421875,-0.48828125
1534597225.720.9560546875,-0.36328125,-0.006591796875,1.56402587891,0.8544921875,-0.625610351562
1534597225.720.957275390625,-0.365966796875,-0.010498046875,1.68609619141,0.740051269531,-0.534057617188
1534597225.720.95703125,-0.369384765625,-0.005615234375,1.68609619141,0.572204589844,-0.518798828125
1534597225.730.95703125,-0.369384765625,-0.002197265625,1.45721435547,0.503540039062,-0.6103515625
1534597225.730.95458984375,-0.36767578125,-0.005126953125,1.71661376953,0.625610351562,-0.495910644531
1534597225.730.955810546875,-0.367919921875,-0.006103515625,1.80053710938,0.48828125,-0.442504882812
1534597225.730.955810546875,-0.36572265625,-0.0048828125,1.51824951172,0.541687011719,-0.541687011719
1534597225.730.954345703125,-0.362548828125,-0.00390625,1.27410888672,0.595092773438,-0.48828125
1534597225.730.957763671875,-0.364013671875,-0.001953125,1.44958496094,0.717163085938,-0.343322753906
1534597225.730.958251953125,-0.36767578125,-0.00244140625,1.61743164062,0.701904296875,-0.373840332031
1534597225.730.953857421875,-0.3681640625,-0.003173828125,1.50299072266,0.717163085938,-0.328063964844
1534597225.730.95654296875,-0.3671875,-0.0029296875,1.31988525391,0.770568847656,-0.350952148438
1534597225.730.95947265625,-0.364501953125,-0.000732421875,1.38092041016,0.625610351562,-0.434875488281
1534597225.740.95703125,-0.365234375,-0.00341796875,1.52587890625,0.411987304688,-0.465393066406
1534597225.740.95556640625,-0.365234375,-0.00830078125,1.5869140625,0.358581542969,-0.602722167969
1534597225.740.95654296875,-0.364990234375,-0.0048828125,1.48773193359,0.373840332031,-0.465393066406
1534597225.740.95654296875,-0.3681640625,-0.005126953125,1.51062011719,0.450134277344,-0.289916992188
1534597225.740.955322265625,-0.36669921875,-0.00634765625,1.44958496094,0.511169433594,-0.0762939453125
1534597225.740.954833984375,-0.3623046875,-0.0029296875,1.54876708984,0.42724609375,-0.0839233398438
1534597225.740.95556640625,-0.361572265625,-0.004150390625,1.61743164062,0.335693359375,-0.228881835938
1534597225.740.956298828125,-0.364990234375,-0.00830078125,1.65557861328,0.267028808594,-0.328063964844
1534597225.740.955322265625,-0.367919921875,-0.006591796875,1.60980224609,0.244140625,-0.137329101562
1534597225.740.953857421875,-0.365966796875,-0.003173828125,1.57165527344,0.343322753906,-0.1220703125
1534597225.740.952880859375,-0.3642578125,-0.00390625,1.48773193359,0.343322753906,-0.213623046875
1534597225.750.954345703125,-0.36474609375,-0.00244140625,1.42669677734,0.411987304688,-0.228881835938
1534597225.750.9560546875,-0.362548828125,-0.002197265625,1.44958496094,0.389099121094,-0.297546386719
1534597225.750.953125,-0.361572265625,-0.002197265625,1.31225585938,0.48828125,-0.236511230469
1534597225.750.952880859375,-0.364013671875,0.000244140625,1.28173828125,0.67138671875,-0.091552734375
1534597225.750.956787109375,-0.365966796875,-0.00048828125,1.49536132812,0.411987304688,-0.228881835938
1534597225.750.957763671875,-0.36767578125,-0.00537109375,1.64794921875,0.396728515625,-0.297546386719
1534597225.750.95703125,-0.366455078125,-0.004638671875,1.62506103516,0.42724609375,-0.244140625
1534597225.750.957763671875,-0.36328125,0.0009765625,1.5869140625,0.503540039062,-0.282287597656
1534597225.760.95654296875,-0.3681640625,-0.005126953125,1.75476074219,0.640869140625,-0.312805175781
1534597225.760.957763671875,-0.3642578125,-0.008544921875,1.61743164062,0.640869140625,-0.282287597656
1534597225.770.955078125,-0.364990234375,-0.004150390625,1.44958496094,0.526428222656,-0.48828125
1534597225.770.95703125,-0.36669921875,-0.003662109375,1.45721435547,0.526428222656,-0.633239746094
1534597225.770.954345703125,-0.36669921875,-0.001220703125,1.61743164062,0.396728515625,-0.442504882812
1534597225.770.953125,-0.366943359375,-0.000732421875,1.41143798828,0.526428222656,-0.473022460938
1534597225.770.951904296875,-0.36669921875,-0.00146484375,1.28936767578,0.732421875,-0.442504882812
1534597225.770.9580078125,-0.366943359375,-0.002197265625,1.53350830078,0.648498535156,-0.442504882812
1534597225.770.957275390625,-0.36376953125,-0.003173828125,1.67083740234,0.42724609375,-0.473022460938
1534597225.780.958740234375,-0.3662109375,-0.002685546875,1.708984375,0.518798828125,-0.640869140625
1534597225.780.954345703125,-0.368896484375,-0.001708984375,1.48773193359,0.633239746094,-0.633239746094
1534597225.780.952880859375,-0.365966796875,-0.0009765625,1.66320800781,0.6103515625,-0.42724609375
1534597225.780.951416015625,-0.365478515625,-0.002197265625,1.75476074219,0.450134277344,-0.541687011719
1534597225.780.954833984375,-0.370361328125,-0.005615234375,1.69372558594,0.518798828125,-0.816345214844
1534597225.780.958984375,-0.3642578125,-0.001708984375,1.57165527344,0.617980957031,-0.579833984375
1534597225.790.957275390625,-0.3642578125,0.002685546875,1.41906738281,0.541687011719,-0.511169433594
1534597225.790.955810546875,-0.3671875,0.0048828125,1.75476074219,0.518798828125,-0.404357910156
1534597225.790.95654296875,-0.3681640625,0.008544921875,1.8310546875,0.503540039062,-0.343322753906
1534597225.790.95751953125,-0.367919921875,-0.001220703125,1.63269042969,0.541687011719,-0.419616699219
1534597225.790.956298828125,-0.368896484375,-0.00048828125,1.40380859375,0.732421875,-0.54931640625
1534597225.80.95361328125,-0.365478515625,-0.005126953125,1.53350830078,0.473022460938,-0.251770019531
1534597225.80.9541015625,-0.36279296875,-0.00537109375,1.43432617188,0.587463378906,-0.236511230469
1534597225.80.95654296875,-0.36279296875,-0.00048828125,1.35803222656,0.801086425781,-0.328063964844
1534597225.80.95361328125,-0.3662109375,-0.0029296875,1.5869140625,0.663757324219,-0.48828125
1534597225.80.95556640625,-0.3662109375,-0.00537109375,1.68609619141,0.564575195312,-0.48828125
1534597225.80.957275390625,-0.366943359375,-0.00634765625,1.85394287109,0.419616699219,-0.381469726562
1534597225.80.956298828125,-0.364013671875,-0.000732421875,1.44958496094,0.274658203125,-0.404357910156
1534597225.80.954833984375,-0.362548828125,0.004638671875,1.23596191406,0.6103515625,-0.434875488281
1534597225.810.9560546875,-0.363525390625,0.005126953125,1.47247314453,0.564575195312,-0.228881835938
1534597225.810.953369140625,-0.365966796875,-0.002685546875,1.51062011719,0.473022460938,-0.267028808594
1534597225.810.953857421875,-0.36474609375,-0.001220703125,1.33514404297,0.663757324219,0.030517578125
1534597225.810.959716796875,-0.36767578125,0.003173828125,1.64031982422,0.495910644531,-0.190734863281
1534597225.810.952392578125,-0.36328125,0.001708984375,1.44958496094,0.404357910156,-0.236511230469
1534597225.810.95263671875,-0.362060546875,-0.001953125,1.28173828125,0.640869140625,-0.213623046875
1534597225.810.954345703125,-0.3642578125,-0.00146484375,1.52587890625,0.770568847656,-0.205993652344
1534597225.810.95458984375,-0.365966796875,0.00634765625,1.72424316406,0.465393066406,-0.106811523438
1534597225.820.95263671875,-0.3701171875,0.00537109375,1.55639648438,0.579833984375,-0.175476074219
1534597225.820.951416015625,-0.371826171875,0.001953125,1.56402587891,0.67138671875,-0.228881835938
1534597225.820.9541015625,-0.368408203125,-0.004150390625,1.56402587891,0.747680664062,-0.411987304688
1534597225.820.95361328125,-0.36669921875,-0.00390625,1.48773193359,0.686645507812,-0.434875488281
1534597225.820.95166015625,-0.366943359375,0.000732421875,1.54113769531,0.6103515625,-0.335693359375
1534597225.820.952392578125,-0.36474609375,-0.002197265625,1.78527832031,0.572204589844,-0.152587890625
1534597225.820.95361328125,-0.365478515625,-0.00244140625,1.64031982422,0.526428222656,-0.175476074219
1534597225.820.955078125,-0.366455078125,-0.001708984375,1.41906738281,0.633239746094,-0.274658203125
1534597225.820.954833984375,-0.363037109375,-0.004150390625,1.46484375,0.656127929688,-0.213623046875
1534597225.830.9560546875,-0.3623046875,-0.002197265625,1.52587890625,0.465393066406,-0.244140625
1534597225.830.955810546875,-0.361083984375,-0.0009765625,1.46484375,0.411987304688,-0.3662109375
1534597225.830.9541015625,-0.360595703125,0.002197265625,1.44195556641,0.434875488281,-0.373840332031
1534597225.830.9560546875,-0.361572265625,-0.0029296875,1.28173828125,0.465393066406,-0.457763671875
1534597225.830.9560546875,-0.36474609375,-0.0068359375,1.48010253906,0.663757324219,-0.236511230469
1534597225.830.956298828125,-0.3671875,0.001708984375,1.38092041016,0.617980957031,-0.30517578125
1534597225.830.954345703125,-0.365478515625,0.003662109375,1.40380859375,0.556945800781,-0.343322753906
1534597225.830.951904296875,-0.36279296875,0.001953125,1.31225585938,0.541687011719,-0.274658203125
1534597225.830.955322265625,-0.361572265625,0.002197265625,1.26647949219,0.419616699219,-0.18310546875
1534597225.830.956298828125,-0.36376953125,-0.002197265625,1.49536132812,0.450134277344,-0.289916992188
1534597225.840.957275390625,-0.365966796875,-0.0029296875,1.67083740234,0.686645507812,-0.259399414062
1534597225.840.955810546875,-0.365234375,-0.001708984375,1.79290771484,0.679016113281,-0.465393066406
1534597225.840.955322265625,-0.369873046875,-0.003173828125,1.77764892578,0.79345703125,-0.534057617188
1534597225.840.956787109375,-0.36962890625,-0.0029296875,1.708984375,0.648498535156,-0.411987304688
1534597225.840.95849609375,-0.367431640625,-0.00048828125,1.55639648438,0.564575195312,-0.358581542969
1534597225.840.957763671875,-0.3681640625,0.000244140625,1.54113769531,0.6103515625,-0.396728515625
1534597225.840.956298828125,-0.364013671875,0.00146484375,1.51062011719,0.679016113281,-0.640869140625
1534597225.840.95556640625,-0.36376953125,0.000732421875,1.3427734375,0.396728515625,-0.91552734375
1534597225.840.955078125,-0.36572265625,-0.002685546875,1.48010253906,0.442504882812,-0.656127929688
1534597225.840.956298828125,-0.36669921875,-0.005615234375,1.56402587891,0.480651855469,-0.495910644531
1534597225.850.95458984375,-0.36669921875,-0.004150390625,1.44195556641,0.724792480469,-0.534057617188
1534597225.850.954345703125,-0.36865234375,-0.001953125,1.67846679688,0.869750976562,-0.686645507812
1534597225.850.95361328125,-0.36865234375,-0.001220703125,1.67083740234,0.709533691406,-0.679016113281
1534597225.850.951904296875,-0.3662109375,0.00048828125,1.53350830078,0.54931640625,-0.54931640625
1534597225.850.954833984375,-0.3662109375,0.0009765625,1.44958496094,0.42724609375,-0.267028808594
1534597225.850.956298828125,-0.364990234375,0.0029296875,1.38092041016,0.396728515625,-0.633239746094
1534597225.850.958251953125,-0.365966796875,-0.000732421875,1.46484375,0.694274902344,-0.656127929688
1534597225.850.958251953125,-0.36572265625,-0.001708984375,1.59454345703,0.625610351562,-0.465393066406
1534597225.850.957275390625,-0.36376953125,0.0009765625,1.54876708984,0.442504882812,-0.6103515625
1534597225.850.957275390625,-0.365234375,-0.001220703125,1.41143798828,0.48828125,-0.808715820312
1534597225.860.955810546875,-0.36865234375,-0.00244140625,1.39617919922,0.602722167969,-0.808715820312
1534597225.860.95361328125,-0.371826171875,-0.002685546875,1.36566162109,0.862121582031,-0.640869140625
1534597225.860.953857421875,-0.367919921875,-0.00732421875,1.54113769531,0.953674316406,-0.419616699219
1534597225.860.957763671875,-0.3662109375,-0.0048828125,1.45721435547,0.732421875,-0.320434570312
1534597225.860.958251953125,-0.36865234375,-0.00048828125,1.38854980469,0.54931640625,-0.457763671875
1534597225.860.95703125,-0.365966796875,-0.004150390625,1.64031982422,0.411987304688,-0.541687011719
1534597225.860.95458984375,-0.366943359375,-0.004150390625,1.78527832031,0.289916992188,-0.640869140625
1534597225.860.954833984375,-0.3662109375,-0.00244140625,1.5869140625,0.381469726562,-0.579833984375
1534597225.860.956298828125,-0.362548828125,0.000732421875,1.36566162109,0.450134277344,-0.373840332031
1534597225.860.956787109375,-0.36181640625,0.0009765625,1.25122070312,0.579833984375,-0.350952148438
1534597225.870.955078125,-0.363525390625,0.001220703125,1.48773193359,0.823974609375,-0.473022460938
1534597225.870.955078125,-0.365234375,0.003662109375,1.72424316406,0.740051269531,-0.495910644531
1534597225.870.95556640625,-0.365234375,0.002685546875,1.67083740234,0.602722167969,-0.518798828125
1534597225.870.954345703125,-0.365234375,0.000244140625,1.52587890625,0.556945800781,-0.564575195312
1534597225.870.954345703125,-0.364013671875,-0.001220703125,1.50299072266,0.648498535156,-0.335693359375
1534597225.870.952392578125,-0.365478515625,-0.00244140625,1.50299072266,0.579833984375,-0.236511230469
1534597225.870.948486328125,-0.37060546875,-0.003173828125,1.64794921875,0.48828125,-0.129699707031
1534597225.870.9482421875,-0.370361328125,-0.002685546875,1.80816650391,0.602722167969,-0.06103515625
1534597225.870.952392578125,-0.366455078125,0.00244140625,1.81579589844,0.625610351562,-0.198364257812
1534597225.870.95458984375,-0.3642578125,0.0078125,1.48773193359,0.67138671875,-0.297546386719
1534597225.870.9560546875,-0.36474609375,0.003173828125,1.40380859375,0.602722167969,-0.282287597656
1534597225.880.954345703125,-0.365478515625,0.00048828125,1.51824951172,0.457763671875,-0.167846679688
1534597225.880.954833984375,-0.364501953125,-0.000732421875,1.55639648438,0.30517578125,-0.129699707031
1534597225.880.9560546875,-0.364990234375,-0.001953125,1.59454345703,0.434875488281,-0.259399414062
1534597225.880.955078125,-0.364501953125,-0.001708984375,1.53350830078,0.6103515625,-0.0457763671875
1534597225.880.95654296875,-0.366455078125,-0.003662109375,1.51824951172,0.633239746094,0.00762939453125
1534597225.880.95849609375,-0.368896484375,-0.000732421875,1.64794921875,0.579833984375,-0.144958496094
1534597225.880.956787109375,-0.36376953125,-0.00146484375,1.67083740234,0.717163085938,-0.198364257812
1534597225.880.9541015625,-0.361083984375,-0.005859375,1.44958496094,0.54931640625,-0.114440917969
1534597225.880.95263671875,-0.365478515625,-0.00244140625,1.35803222656,0.534057617188,-0.0762939453125
1534597225.880.9501953125,-0.36669921875,0.005126953125,1.57165527344,0.419616699219,-0.335693359375
1534597225.890.9521484375,-0.36767578125,0.0029296875,1.48010253906,0.244140625,-0.450134277344
1534597225.890.957275390625,-0.36767578125,-0.00146484375,1.59454345703,0.30517578125,-0.198364257812
1534597225.890.95849609375,-0.36669921875,-0.00341796875,1.65557861328,0.541687011719,-0.114440917969
1534597225.890.956298828125,-0.367431640625,-0.008056640625,1.56402587891,0.541687011719,-0.236511230469
1534597225.890.95654296875,-0.3671875,-0.00732421875,1.51062011719,0.602722167969,-0.358581542969
1534597225.890.95703125,-0.36962890625,-0.00146484375,1.64031982422,0.686645507812,-0.335693359375
1534597225.890.956298828125,-0.36962890625,-0.0029296875,1.45721435547,0.572204589844,-0.320434570312
1534597225.890.956298828125,-0.3671875,-0.005126953125,1.64794921875,0.442504882812,-0.236511230469
1534597225.890.9560546875,-0.368896484375,-0.000244140625,1.67846679688,0.373840332031,-0.228881835938
1534597225.890.9580078125,-0.367919921875,0.001953125,1.32751464844,0.42724609375,-0.267028808594
1534597225.90.957275390625,-0.36376953125,-0.002685546875,1.220703125,0.381469726562,-0.3662109375
1534597225.90.95361328125,-0.364501953125,-0.00732421875,1.3427734375,0.518798828125,-0.381469726562
1534597225.90.954833984375,-0.365234375,-0.00244140625,1.67846679688,0.709533691406,-0.282287597656
1534597225.90.954833984375,-0.364990234375,0.0,1.80053710938,0.495910644531,-0.3662109375
1534597225.90.952880859375,-0.36572265625,-0.004638671875,1.66320800781,0.450134277344,-0.282287597656
1534597225.90.952392578125,-0.3623046875,-0.003173828125,1.49536132812,0.656127929688,-0.450134277344
1534597225.90.95458984375,-0.361328125,-0.0048828125,1.63269042969,0.465393066406,-0.595092773438
1534597225.90.955810546875,-0.363037109375,-0.008544921875,1.37329101562,0.656127929688,-0.30517578125
1534597225.90.95458984375,-0.36376953125,-0.0087890625,1.40380859375,0.823974609375,-0.404357910156
1534597225.90.954833984375,-0.365478515625,-0.011474609375,1.35803222656,0.816345214844,-0.686645507812
1534597225.910.956787109375,-0.368896484375,-0.009521484375,1.55639648438,0.724792480469,-0.633239746094
1534597225.910.955322265625,-0.36962890625,-0.005859375,1.83868408203,0.732421875,-0.48828125
1534597225.910.950927734375,-0.36962890625,-0.00732421875,1.73950195312,0.839233398438,-0.48828125
1534597225.910.95166015625,-0.368408203125,-0.009033203125,1.69372558594,0.823974609375,-0.6103515625
1534597225.910.955810546875,-0.36474609375,-0.0107421875,1.60980224609,0.587463378906,-0.450134277344
1534597225.910.955810546875,-0.36474609375,-0.0107421875,1.70135498047,0.740051269531,-0.335693359375
1534597225.910.955322265625,-0.36669921875,-0.003662109375,1.48773193359,0.701904296875,-0.564575195312
1534597225.920.954345703125,-0.365234375,-0.0029296875,1.56402587891,0.503540039062,-0.434875488281
1534597225.920.9560546875,-0.3701171875,-0.001953125,1.73187255859,0.274658203125,-0.450134277344
1534597225.930.955810546875,-0.365478515625,-0.007080078125,1.64794921875,0.602722167969,-0.511169433594
1534597225.930.95361328125,-0.36572265625,-0.009765625,1.40380859375,0.930786132812,-0.633239746094
1534597225.930.955810546875,-0.36328125,-0.003173828125,1.35803222656,0.663757324219,-0.595092773438
1534597225.930.95361328125,-0.36279296875,-0.001708984375,1.51062011719,0.350952148438,-0.289916992188
1534597225.930.953369140625,-0.36474609375,0.001220703125,1.74713134766,0.564575195312,-0.297546386719
1534597225.940.95703125,-0.364501953125,-0.000244140625,1.51062011719,0.381469726562,-0.267028808594
1534597225.940.95654296875,-0.366943359375,-0.002197265625,1.38854980469,0.480651855469,-0.137329101562
1534597225.940.95458984375,-0.36328125,-0.002197265625,1.72424316406,0.694274902344,-0.373840332031
1534597225.940.954345703125,-0.363037109375,-0.001220703125,1.67083740234,0.640869140625,-0.350952148438
1534597225.940.959228515625,-0.368896484375,-0.002197265625,1.76239013672,0.3662109375,-0.160217285156
1534597225.940.9580078125,-0.36572265625,-0.0078125,1.56402587891,0.503540039062,-0.213623046875
1534597225.950.956787109375,-0.363037109375,-0.003662109375,1.52587890625,0.579833984375,-0.411987304688
1534597225.950.951904296875,-0.365478515625,-0.00146484375,1.69372558594,0.495910644531,-0.282287597656
1534597225.950.951171875,-0.366455078125,0.00146484375,1.52587890625,0.373840332031,-0.175476074219
1534597225.950.95556640625,-0.365478515625,0.00390625,1.54113769531,0.289916992188,-0.373840332031
1534597225.950.954833984375,-0.36669921875,0.00390625,1.54876708984,0.419616699219,-0.343322753906
1534597225.950.9541015625,-0.364013671875,-0.000732421875,1.39617919922,0.442504882812,-0.358581542969
1534597225.960.952880859375,-0.363037109375,-0.00244140625,1.49536132812,0.381469726562,-0.579833984375
1534597225.960.95361328125,-0.36572265625,-0.002197265625,1.50299072266,0.358581542969,-0.335693359375
1534597225.960.95361328125,-0.368408203125,-0.001708984375,1.44958496094,0.511169433594,-0.198364257812
1534597225.960.952392578125,-0.364501953125,0.006591796875,1.46484375,0.587463378906,-0.236511230469
1534597225.960.95166015625,-0.360595703125,0.00537109375,1.26647949219,0.648498535156,-0.465393066406
1534597225.960.957763671875,-0.36865234375,0.002197265625,1.60217285156,0.625610351562,-0.534057617188
1534597225.960.95361328125,-0.373046875,-0.003662109375,1.72424316406,0.602722167969,-0.48828125
1534597225.960.954345703125,-0.36865234375,-0.003173828125,1.48010253906,0.869750976562,-0.503540039062
1534597225.970.953125,-0.367919921875,0.0,1.54876708984,0.846862792969,-0.480651855469
1534597225.970.95361328125,-0.365966796875,-0.004150390625,1.50299072266,0.869750976562,-0.434875488281
1534597225.970.953857421875,-0.364990234375,-0.007568359375,1.44958496094,0.808715820312,-0.656127929688
1534597225.970.952880859375,-0.36328125,-0.00244140625,1.65557861328,0.518798828125,-0.686645507812
1534597225.970.953125,-0.361328125,-0.000732421875,1.64031982422,0.42724609375,-0.709533691406
1534597225.970.9521484375,-0.362548828125,-0.0029296875,1.54876708984,0.274658203125,-0.633239746094
1534597225.970.95556640625,-0.365234375,-0.003173828125,1.47247314453,0.442504882812,-0.572204589844
1534597225.970.95654296875,-0.3642578125,-0.00390625,1.31225585938,0.694274902344,-0.572204589844
1534597225.970.953369140625,-0.363525390625,-0.001220703125,1.33514404297,0.961303710938,-0.473022460938
1534597225.980.955810546875,-0.365966796875,0.002197265625,1.44195556641,0.656127929688,-0.656127929688
1534597225.980.95751953125,-0.3671875,-0.000732421875,1.33514404297,0.556945800781,-0.595092773438
1534597225.980.955810546875,-0.368408203125,-0.001708984375,1.38854980469,0.495910644531,-0.541687011719
1534597225.980.957763671875,-0.36767578125,-0.0009765625,1.57928466797,0.503540039062,-0.724792480469
1534597225.980.958984375,-0.363037109375,-0.00341796875,1.54113769531,0.724792480469,-0.595092773438
1534597225.980.953125,-0.3603515625,-0.006591796875,1.38854980469,0.518798828125,-0.396728515625
1534597225.980.956787109375,-0.36474609375,-0.00390625,1.62506103516,0.373840332031,-0.724792480469
1534597225.990.959228515625,-0.367431640625,-0.00439453125,1.56402587891,0.465393066406,-0.67138671875
1534597225.990.95751953125,-0.3671875,-0.0029296875,1.37329101562,0.709533691406,-0.740051269531
1534597225.990.95703125,-0.3662109375,-0.00146484375,1.49536132812,0.679016113281,-0.572204589844
1534597225.990.956787109375,-0.365234375,-0.00048828125,1.5869140625,0.67138671875,-0.518798828125
1534597225.990.955078125,-0.365234375,-0.003173828125,1.70135498047,0.724792480469,-0.434875488281
1534597225.990.9541015625,-0.365234375,-0.006103515625,1.57928466797,0.442504882812,-0.564575195312
1534597225.990.95361328125,-0.36474609375,-0.004150390625,1.60217285156,0.244140625,-0.495910644531
1534597225.990.957275390625,-0.365966796875,-0.001708984375,1.64031982422,0.18310546875,-0.343322753906
1534597225.990.957275390625,-0.368408203125,-0.00146484375,1.64031982422,0.48828125,-0.282287597656
1534597225.990.9541015625,-0.365478515625,0.0009765625,1.60980224609,0.770568847656,-0.282287597656
1534597226.00.954345703125,-0.361328125,-0.001220703125,1.45721435547,0.694274902344,-0.282287597656
1534597226.00.95703125,-0.361083984375,-0.00390625,1.45721435547,0.6103515625,-0.358581542969
1534597226.00.958740234375,-0.364013671875,-0.004638671875,1.51062011719,0.434875488281,-0.465393066406
1534597226.00.955078125,-0.36572265625,-0.007080078125,1.80816650391,0.457763671875,-0.42724609375
1534597226.00.95458984375,-0.36328125,-0.002685546875,1.83868408203,0.511169433594,-0.389099121094
1534597226.00.955322265625,-0.363037109375,0.003173828125,1.69372558594,0.518798828125,-0.350952148438
1534597226.00.954345703125,-0.363037109375,0.001220703125,1.64031982422,0.457763671875,-0.335693359375
1534597226.00.954345703125,-0.36328125,-0.006591796875,1.55639648438,0.663757324219,-0.259399414062
1534597226.00.953857421875,-0.364990234375,-0.00439453125,1.57928466797,0.579833984375,-0.335693359375
1534597226.00.953125,-0.365234375,-0.0009765625,1.75476074219,0.526428222656,-0.259399414062
1534597226.010.9541015625,-0.3671875,0.0,1.73950195312,0.42724609375,-0.259399414062
1534597226.010.95849609375,-0.367919921875,0.00048828125,1.48010253906,0.404357910156,-0.175476074219
1534597226.010.95849609375,-0.365478515625,-0.003173828125,1.41906738281,0.396728515625,-0.175476074219
1534597226.010.95703125,-0.36572265625,-0.00244140625,1.72424316406,0.442504882812,-0.190734863281
1534597226.010.95751953125,-0.36865234375,-0.003662109375,1.86920166016,0.564575195312,-0.267028808594
1534597226.010.955078125,-0.365966796875,-0.004150390625,1.64794921875,0.755310058594,-0.236511230469
1534597226.010.953125,-0.363525390625,-0.00048828125,1.59454345703,0.8544921875,-0.221252441406
1534597226.010.9541015625,-0.364013671875,0.001708984375,1.49536132812,0.648498535156,-0.30517578125
1534597226.010.957275390625,-0.36279296875,0.001220703125,1.60217285156,0.404357910156,-0.282287597656
1534597226.010.958251953125,-0.361328125,-0.0009765625,1.45721435547,0.54931640625,-0.144958496094
1534597226.020.955810546875,-0.362548828125,-0.001953125,1.33514404297,0.732421875,-0.0686645507812
1534597226.020.956298828125,-0.3642578125,0.000732421875,1.27410888672,0.602722167969,-0.18310546875
1534597226.020.954345703125,-0.36376953125,0.000244140625,1.41906738281,0.625610351562,-0.289916992188
1534597226.020.951171875,-0.363037109375,-0.00341796875,1.64031982422,0.6103515625,-0.350952148438
1534597226.020.951904296875,-0.365234375,-0.003662109375,1.70135498047,0.694274902344,-0.297546386719
1534597226.020.954345703125,-0.367431640625,0.000244140625,1.50299072266,0.846862792969,-0.259399414062
1534597226.020.953857421875,-0.365478515625,-0.004150390625,1.38092041016,0.495910644531,-0.160217285156
1534597226.020.953125,-0.364990234375,-0.005126953125,1.45721435547,0.511169433594,-0.511169433594
1534597226.020.951416015625,-0.36572265625,-0.00244140625,1.5869140625,0.48828125,-0.389099121094
1534597226.020.952880859375,-0.366943359375,0.001953125,1.73950195312,0.419616699219,-0.358581542969
1534597226.030.954833984375,-0.366943359375,0.00390625,1.57165527344,0.587463378906,-0.267028808594
1534597226.030.9521484375,-0.36376953125,-0.00146484375,1.44958496094,0.54931640625,0.00762939453125
1534597226.030.952880859375,-0.36279296875,0.0,1.46484375,0.312805175781,-0.030517578125
1534597226.030.95458984375,-0.36328125,0.0,1.54876708984,0.42724609375,-0.419616699219
1534597226.030.9541015625,-0.364501953125,-0.001708984375,1.70135498047,0.724792480469,-0.617980957031
1534597226.030.9521484375,-0.364990234375,-0.00146484375,1.77001953125,0.595092773438,-0.579833984375
1534597226.030.95361328125,-0.365234375,-0.0009765625,1.56402587891,0.511169433594,-0.755310058594
1534597226.030.954833984375,-0.364990234375,-0.001220703125,1.64031982422,0.526428222656,-0.663757324219
1534597226.030.956298828125,-0.36328125,-0.00341796875,1.68609619141,0.526428222656,-0.541687011719
1534597226.030.955810546875,-0.362060546875,-0.00341796875,1.73187255859,0.518798828125,-0.587463378906
1534597226.040.956787109375,-0.362060546875,0.0,1.80816650391,0.48828125,-0.717163085938
1534597226.040.95751953125,-0.36572265625,-0.005126953125,1.64794921875,0.556945800781,-0.564575195312
1534597226.040.953369140625,-0.36767578125,-0.007568359375,1.56402587891,0.579833984375,-0.473022460938
1534597226.040.953857421875,-0.36474609375,-0.00244140625,1.50299072266,0.617980957031,-0.473022460938
1534597226.040.95361328125,-0.3623046875,-0.004150390625,1.59454345703,0.617980957031,-0.633239746094
1534597226.040.951416015625,-0.36279296875,-0.005126953125,1.60217285156,0.556945800781,-0.778198242188
1534597226.040.954345703125,-0.363037109375,-0.00537109375,1.48010253906,0.67138671875,-0.694274902344
1534597226.040.957763671875,-0.365234375,-0.003662109375,1.31988525391,0.877380371094,-0.495910644531
1534597226.040.954345703125,-0.364990234375,0.000244140625,1.43432617188,0.885009765625,-0.495910644531
1534597226.040.954345703125,-0.36474609375,0.001953125,1.57928466797,0.762939453125,-0.54931640625
1534597226.040.959228515625,-0.36767578125,0.000732421875,1.60217285156,0.640869140625,-0.465393066406
1534597226.050.9580078125,-0.365966796875,-0.001220703125,1.72424316406,0.54931640625,-0.434875488281
1534597226.050.956298828125,-0.365234375,-0.001953125,1.37329101562,0.556945800781,-0.663757324219
1534597226.050.953857421875,-0.36328125,-0.00341796875,1.35803222656,0.625610351562,-0.770568847656
1534597226.050.94970703125,-0.362060546875,-0.001953125,1.53350830078,0.617980957031,-0.54931640625
1534597226.050.951171875,-0.364501953125,-0.00244140625,1.76239013672,0.572204589844,-0.503540039062
1534597226.050.95263671875,-0.367431640625,0.001220703125,1.83868408203,0.717163085938,-0.511169433594
1534597226.050.9521484375,-0.368896484375,0.00341796875,1.79290771484,0.556945800781,-0.587463378906
1534597226.050.953369140625,-0.364013671875,-0.000244140625,1.60217285156,0.289916992188,-0.595092773438
1534597226.050.9541015625,-0.362548828125,-0.004638671875,1.48773193359,0.389099121094,-0.343322753906
1534597226.050.952880859375,-0.365234375,-0.01025390625,1.5869140625,0.587463378906,-0.213623046875
1534597226.060.951171875,-0.36328125,-0.00146484375,1.47247314453,0.732421875,-0.419616699219
1534597226.060.953125,-0.364013671875,0.001220703125,1.43432617188,0.640869140625,-0.404357910156
1534597226.060.95654296875,-0.369384765625,-0.00439453125,1.41906738281,0.579833984375,-0.343322753906
1534597226.060.954833984375,-0.36767578125,-0.0068359375,1.46484375,0.503540039062,-0.541687011719
1534597226.070.954345703125,-0.3642578125,-0.006591796875,1.55639648438,0.518798828125,-0.42724609375
1534597226.070.95751953125,-0.363037109375,-0.001708984375,1.86920166016,0.785827636719,-0.0991821289062
1534597226.070.955810546875,-0.365478515625,-0.002197265625,1.57928466797,0.54931640625,-0.0991821289062
1534597226.070.9541015625,-0.365966796875,-0.005126953125,1.73950195312,0.648498535156,-0.198364257812
1534597226.070.953369140625,-0.365966796875,-0.00048828125,1.54113769531,0.701904296875,-0.328063964844
1534597226.070.952392578125,-0.36181640625,-0.0029296875,1.77764892578,0.587463378906,-0.30517578125
1534597226.080.95751953125,-0.36279296875,-0.0029296875,1.76239013672,0.518798828125,-0.144958496094
1534597226.080.957275390625,-0.36572265625,-0.00390625,1.72424316406,0.6103515625,-0.1220703125
1534597226.080.956787109375,-0.36767578125,-0.0048828125,1.54113769531,0.48828125,-0.381469726562
1534597226.080.955078125,-0.369873046875,-0.000244140625,1.39617919922,0.67138671875,-0.282287597656
1534597226.080.9580078125,-0.36767578125,-0.0048828125,1.56402587891,0.724792480469,-0.511169433594
1534597226.080.9541015625,-0.36572265625,-0.00341796875,1.41906738281,0.709533691406,-0.289916992188
1534597226.090.953857421875,-0.36474609375,-0.00341796875,1.49536132812,0.724792480469,-0.335693359375
1534597226.090.955322265625,-0.369140625,-0.004150390625,1.69372558594,0.717163085938,-0.434875488281
1534597226.090.9560546875,-0.3671875,0.00048828125,1.55639648438,0.755310058594,-0.419616699219
1534597226.10.952880859375,-0.364990234375,-0.003173828125,1.44958496094,0.564575195312,-0.541687011719
1534597226.10.954345703125,-0.365966796875,-0.0048828125,1.49536132812,0.328063964844,-0.686645507812
1534597226.10.955078125,-0.363525390625,-0.001220703125,1.54113769531,0.42724609375,-0.67138671875
1534597226.10.951904296875,-0.3671875,-0.003173828125,1.41143798828,0.808715820312,-0.495910644531
1534597226.10.952880859375,-0.36572265625,-0.008056640625,1.38854980469,0.602722167969,-0.48828125
1534597226.10.953125,-0.362548828125,0.00146484375,1.63269042969,0.450134277344,-0.350952148438
1534597226.110.952392578125,-0.366455078125,-0.000732421875,1.49536132812,0.595092773438,-0.656127929688
1534597226.110.95458984375,-0.366943359375,-0.005126953125,1.5869140625,0.328063964844,-0.404357910156
1534597226.110.95556640625,-0.364501953125,-0.00146484375,1.51824951172,0.411987304688,-0.267028808594
1534597226.110.957275390625,-0.365478515625,-0.001220703125,1.67846679688,0.602722167969,-0.228881835938
1534597226.110.95458984375,-0.364990234375,-0.003173828125,1.75476074219,0.663757324219,-0.30517578125
1534597226.110.955322265625,-0.367431640625,-0.004638671875,1.73950195312,0.67138671875,-0.381469726562
1534597226.110.952392578125,-0.3642578125,-0.00732421875,1.70135498047,0.587463378906,-0.236511230469
1534597226.110.952392578125,-0.3642578125,-0.00732421875,1.54113769531,0.6103515625,-0.480651855469
1534597226.120.95361328125,-0.368408203125,-0.003173828125,1.38092041016,0.350952148438,-0.42724609375
1534597226.120.956787109375,-0.361328125,-0.00341796875,1.49536132812,0.587463378906,-0.358581542969
1534597226.120.953857421875,-0.364990234375,-0.0048828125,1.64794921875,0.663757324219,-0.320434570312
1534597226.120.953857421875,-0.364990234375,-0.0048828125,1.67083740234,0.358581542969,-0.335693359375
1534597226.120.9501953125,-0.364013671875,0.001708984375,1.81579589844,0.297546386719,-0.274658203125
1534597226.120.951904296875,-0.365234375,-0.000244140625,1.72424316406,0.282287597656,-0.320434570312
1534597226.120.951904296875,-0.365234375,-0.000244140625,1.56402587891,0.350952148438,-0.343322753906
1534597226.120.954345703125,-0.3681640625,-0.00830078125,1.45721435547,0.473022460938,-0.389099121094
1534597226.120.953857421875,-0.37060546875,-0.006591796875,1.56402587891,0.79345703125,-0.617980957031
1534597226.120.953125,-0.366943359375,0.0009765625,1.77764892578,0.747680664062,-0.732421875
1534597226.130.958984375,-0.370361328125,0.001953125,1.64794921875,0.831604003906,-0.556945800781
1534597226.130.960205078125,-0.369140625,-0.0048828125,1.41906738281,0.648498535156,-0.373840332031
1534597226.130.959716796875,-0.369140625,-0.005615234375,1.49536132812,0.579833984375,-0.358581542969
1534597226.130.95751953125,-0.37109375,0.0009765625,1.54113769531,0.564575195312,-0.267028808594
1534597226.130.956787109375,-0.37060546875,0.001220703125,1.41143798828,0.503540039062,-0.289916992188
1534597226.130.95654296875,-0.3701171875,-0.00244140625,1.51062011719,0.541687011719,-0.259399414062
1534597226.130.955810546875,-0.368896484375,-0.000244140625,1.57928466797,0.503540039062,-0.381469726562
1534597226.130.955322265625,-0.366943359375,0.00439453125,1.59454345703,0.518798828125,-0.434875488281
1534597226.130.9560546875,-0.363525390625,0.001220703125,1.49536132812,0.503540039062,-0.785827636719
1534597226.140.956298828125,-0.361328125,-0.00244140625,1.46484375,0.312805175781,-0.770568847656
1534597226.140.956298828125,-0.3662109375,0.003173828125,1.57928466797,0.564575195312,-0.465393066406
1534597226.140.95166015625,-0.3681640625,0.00537109375,1.68609619141,0.572204589844,-0.312805175781
1534597226.140.95263671875,-0.367431640625,-0.00244140625,1.50299072266,0.724792480469,-0.595092773438
1534597226.140.9580078125,-0.367919921875,-0.00537109375,1.31225585938,0.442504882812,-0.602722167969
1534597226.140.957275390625,-0.367431640625,0.0,1.39617919922,0.335693359375,-0.457763671875
1534597226.140.958984375,-0.3642578125,0.00146484375,1.65557861328,0.556945800781,-0.396728515625
1534597226.140.958984375,-0.3642578125,0.00146484375,1.65557861328,0.579833984375,-0.503540039062
1534597226.140.95703125,-0.36279296875,0.004638671875,1.64031982422,0.572204589844,-0.54931640625
1534597226.140.96044921875,-0.363037109375,-0.0029296875,1.63269042969,0.495910644531,-0.419616699219
1534597226.150.95654296875,-0.36376953125,-0.008056640625,1.64794921875,0.541687011719,-0.434875488281
1534597226.150.95654296875,-0.36376953125,-0.008056640625,1.65557861328,0.579833984375,-0.495910644531
1534597226.150.95068359375,-0.365234375,-0.0078125,1.43432617188,0.823974609375,-0.480651855469
1534597226.150.950927734375,-0.366455078125,-0.00439453125,1.35803222656,0.717163085938,-0.434875488281
1534597226.150.956787109375,-0.369140625,0.000244140625,1.30462646484,0.617980957031,-0.343322753906
1534597226.150.957275390625,-0.367431640625,-0.001953125,1.35040283203,0.579833984375,-0.335693359375
1534597226.150.95458984375,-0.36376953125,0.0,1.51062011719,0.381469726562,-0.457763671875
1534597226.150.954345703125,-0.366455078125,0.002197265625,1.54876708984,0.236511230469,-0.534057617188
1534597226.150.954345703125,-0.367431640625,-0.002685546875,1.41143798828,0.244140625,-0.534057617188
1534597226.150.953369140625,-0.364501953125,-0.00439453125,1.37329101562,0.450134277344,-0.282287597656
1534597226.160.952880859375,-0.36474609375,-0.00537109375,1.64794921875,0.419616699219,-0.244140625
1534597226.160.95361328125,-0.365234375,-0.004638671875,1.89208984375,0.617980957031,-0.48828125
1534597226.160.953125,-0.362060546875,0.002197265625,1.79290771484,0.617980957031,-0.556945800781
1534597226.160.9521484375,-0.361572265625,0.002685546875,1.73187255859,0.740051269531,-0.335693359375
1534597226.160.95166015625,-0.3642578125,0.003662109375,1.77001953125,0.48828125,-0.289916992188
1534597226.160.951171875,-0.3642578125,0.005615234375,1.48010253906,0.473022460938,-0.358581542969
1534597226.160.951904296875,-0.362548828125,-0.0009765625,1.47247314453,0.442504882812,-0.434875488281
1534597226.160.953369140625,-0.3642578125,0.0,1.51062011719,0.480651855469,-0.473022460938
1534597226.160.953369140625,-0.36669921875,0.001708984375,1.39617919922,0.42724609375,-0.564575195312
1534597226.160.95361328125,-0.365478515625,-0.0009765625,1.60217285156,0.274658203125,-0.289916992188
1534597226.160.95458984375,-0.3642578125,-0.003173828125,1.72424316406,0.389099121094,-0.0152587890625
1534597226.170.957275390625,-0.364013671875,-0.001953125,1.73187255859,0.541687011719,-0.0991821289062
1534597226.170.957275390625,-0.36376953125,0.0,1.62506103516,0.48828125,-0.312805175781
1534597226.170.9560546875,-0.365234375,-0.00390625,1.62506103516,0.457763671875,-0.358581542969
1534597226.170.95654296875,-0.36474609375,-0.005615234375,1.59454345703,0.564575195312,-0.419616699219
1534597226.170.952392578125,-0.364990234375,-0.001953125,1.48010253906,0.54931640625,-0.54931640625
1534597226.170.948974609375,-0.367431640625,-0.00146484375,1.88446044922,0.67138671875,-0.579833984375
1534597226.170.952392578125,-0.366943359375,-0.003662109375,1.74713134766,0.732421875,-0.297546386719
1534597226.170.955322265625,-0.367431640625,-0.007080078125,1.54876708984,0.587463378906,-0.0839233398438
1534597226.170.955322265625,-0.365966796875,-0.006591796875,1.52587890625,0.640869140625,-0.221252441406
1534597226.170.955810546875,-0.366455078125,-0.001220703125,1.55639648438,0.640869140625,-0.3662109375
1534597226.180.95556640625,-0.367431640625,0.0,1.78527832031,0.54931640625,-0.42724609375
1534597226.180.95458984375,-0.365966796875,-0.004638671875,1.71661376953,0.343322753906,-0.526428222656
1534597226.180.952880859375,-0.365478515625,-0.00830078125,1.41143798828,0.450134277344,-0.350952148438
1534597226.180.9541015625,-0.365234375,-0.00439453125,1.46484375,0.617980957031,-0.251770019531
1534597226.180.9560546875,-0.3662109375,-0.00390625,1.77764892578,0.67138671875,-0.297546386719
1534597226.180.9560546875,-0.367919921875,-0.002685546875,1.85394287109,0.534057617188,-0.42724609375
1534597226.180.95703125,-0.368408203125,-0.001953125,1.61743164062,0.541687011719,-0.48828125
1534597226.180.956787109375,-0.367919921875,0.0,1.57928466797,0.701904296875,-0.511169433594
1534597226.180.95556640625,-0.36767578125,0.00048828125,1.54113769531,0.656127929688,-0.389099121094
1534597226.180.9560546875,-0.365234375,-0.00244140625,1.57165527344,0.534057617188,-0.457763671875
1534597226.190.95751953125,-0.364990234375,-0.001953125,1.50299072266,0.572204589844,-0.572204589844
1534597226.190.956787109375,-0.36474609375,-0.00244140625,1.57928466797,0.717163085938,-0.396728515625
1534597226.190.957275390625,-0.36376953125,-0.002197265625,1.75476074219,0.823974609375,-0.434875488281
1534597226.190.95556640625,-0.364990234375,0.0,1.67846679688,0.770568847656,-0.289916992188
1534597226.190.956298828125,-0.36572265625,0.001708984375,1.48010253906,0.709533691406,-0.396728515625
1534597226.190.95556640625,-0.367431640625,-0.0029296875,1.41143798828,0.556945800781,-0.465393066406
1534597226.190.951416015625,-0.3671875,-0.00341796875,1.45721435547,0.442504882812,-0.518798828125
1534597226.190.954345703125,-0.36669921875,0.002685546875,1.62506103516,0.579833984375,-0.572204589844
1534597226.190.95703125,-0.36669921875,0.002197265625,1.70135498047,0.778198242188,-0.633239746094
1534597226.190.95751953125,-0.3671875,0.001953125,1.63269042969,0.595092773438,-0.694274902344
1534597226.20.956787109375,-0.369140625,-0.001220703125,1.57928466797,0.48828125,-0.6103515625
1534597226.20.95458984375,-0.367919921875,-0.002685546875,1.57928466797,0.419616699219,-0.6103515625
1534597226.20.95654296875,-0.36669921875,0.0009765625,1.5869140625,0.587463378906,-0.724792480469
1534597226.20.957275390625,-0.36474609375,0.0009765625,1.50299072266,0.625610351562,-0.312805175781
1534597226.20.9580078125,-0.3642578125,0.002685546875,1.61743164062,0.679016113281,-0.221252441406
1534597226.20.958740234375,-0.367919921875,-0.0009765625,1.54876708984,0.564575195312,-0.282287597656
1534597226.20.955810546875,-0.369384765625,-0.007568359375,1.54876708984,0.762939453125,-0.267028808594
1534597226.20.959228515625,-0.36865234375,-0.008056640625,1.44958496094,0.892639160156,-0.244140625
1534597226.20.9609375,-0.3671875,-0.0029296875,1.73950195312,0.419616699219,-0.343322753906
1534597226.20.958251953125,-0.3662109375,-0.001953125,1.54113769531,0.42724609375,-0.564575195312
1534597226.210.958251953125,-0.366455078125,-0.00244140625,1.27410888672,0.595092773438,-0.442504882812
1534597226.210.95654296875,-0.3671875,0.00341796875,1.56402587891,0.640869140625,-0.289916992188
1534597226.210.954345703125,-0.36669921875,-0.00146484375,1.81579589844,0.625610351562,-0.244140625
1534597226.210.954345703125,-0.367919921875,-0.00732421875,1.708984375,0.267028808594,-0.282287597656
1534597226.210.95458984375,-0.36865234375,-0.002685546875,1.35040283203,0.198364257812,-0.282287597656
1534597226.210.956298828125,-0.367431640625,0.0009765625,1.36566162109,0.320434570312,-0.251770019531
1534597226.210.95751953125,-0.366455078125,0.000244140625,1.47247314453,0.503540039062,-0.259399414062
1534597226.210.9560546875,-0.366455078125,-0.003173828125,1.68609619141,0.587463378906,-0.373840332031
1534597226.210.956787109375,-0.36767578125,-0.00390625,1.68609619141,0.686645507812,-0.297546386719
1534597226.220.955078125,-0.36767578125,-0.003662109375,1.61743164062,0.411987304688,-0.541687011719
1534597226.220.95458984375,-0.36376953125,-0.003662109375,1.59454345703,0.633239746094,-0.404357910156
1534597226.230.9560546875,-0.36572265625,-0.00341796875,1.52587890625,0.617980957031,-0.244140625
1534597226.230.955078125,-0.3671875,0.00048828125,1.53350830078,0.617980957031,-0.167846679688
1534597226.230.956787109375,-0.365966796875,-0.003662109375,1.62506103516,0.450134277344,-0.190734863281
1534597226.230.954833984375,-0.36669921875,-0.007080078125,1.65557861328,0.526428222656,-0.389099121094
1534597226.230.953857421875,-0.36376953125,0.00048828125,1.33514404297,0.633239746094,-0.343322753906
1534597226.230.9560546875,-0.364013671875,0.0,1.33514404297,0.785827636719,-0.358581542969
1534597226.230.95654296875,-0.36279296875,0.001708984375,1.50299072266,0.694274902344,-0.404357910156
1534597226.240.95263671875,-0.363525390625,-0.00048828125,1.60980224609,0.755310058594,-0.617980957031
1534597226.240.95703125,-0.365478515625,-0.0009765625,1.51824951172,0.701904296875,-0.411987304688
1534597226.250.95458984375,-0.3642578125,0.00146484375,1.48773193359,0.579833984375,-0.30517578125
1534597226.250.95556640625,-0.365966796875,0.001953125,1.35803222656,0.587463378906,-0.213623046875
1534597226.250.957275390625,-0.365234375,-0.00732421875,1.52587890625,0.48828125,-0.167846679688
1534597226.250.957763671875,-0.363525390625,-0.00341796875,1.57165527344,0.3662109375,-0.42724609375
1534597226.250.951171875,-0.365478515625,-0.0048828125,1.56402587891,0.579833984375,-0.663757324219
1534597226.250.9501953125,-0.365966796875,-0.005126953125,1.31225585938,0.54931640625,-0.770568847656
1534597226.250.954345703125,-0.365234375,0.0,1.35803222656,0.587463378906,-0.335693359375
1534597226.250.958251953125,-0.364501953125,0.000244140625,1.47247314453,0.587463378906,-0.411987304688
1534597226.260.954345703125,-0.365478515625,0.00244140625,1.38092041016,0.640869140625,-0.343322753906
1534597226.260.9560546875,-0.36328125,-0.00244140625,1.38092041016,0.450134277344,-0.587463378906
1534597226.260.955810546875,-0.364501953125,0.001953125,1.19781494141,0.419616699219,-0.450134277344
1534597226.260.955322265625,-0.3642578125,-0.00244140625,1.39617919922,0.3662109375,-0.419616699219
1534597226.260.958984375,-0.367431640625,-0.001953125,1.67083740234,0.54931640625,-0.267028808594
1534597226.260.95703125,-0.369384765625,-0.00048828125,1.51062011719,0.595092773438,-0.320434570312
1534597226.270.954833984375,-0.37060546875,0.001953125,1.48773193359,0.572204589844,-0.42724609375
1534597226.270.95458984375,-0.36376953125,0.003662109375,1.61743164062,0.579833984375,-0.3662109375
1534597226.270.955810546875,-0.362548828125,0.006103515625,1.70135498047,0.67138671875,-0.419616699219
1534597226.270.955810546875,-0.3681640625,0.001708984375,1.77001953125,0.686645507812,-0.42724609375
1534597226.270.954833984375,-0.3701171875,-0.000244140625,1.59454345703,0.595092773438,-0.389099121094
1534597226.270.95654296875,-0.369140625,-0.00244140625,1.50299072266,0.572204589844,-0.587463378906
1534597226.270.955810546875,-0.3662109375,-0.00341796875,1.48773193359,0.473022460938,-0.534057617188
1534597226.270.9521484375,-0.36474609375,-0.00146484375,1.65557861328,0.495910644531,-0.572204589844
1534597226.270.954345703125,-0.36572265625,-0.000244140625,1.62506103516,0.534057617188,-0.617980957031
1534597226.280.958251953125,-0.366455078125,0.0,1.73950195312,0.679016113281,-0.556945800781
1534597226.280.956787109375,-0.36767578125,0.00390625,1.86157226562,0.495910644531,-0.343322753906
1534597226.280.953857421875,-0.365478515625,0.002685546875,1.86157226562,0.556945800781,-0.274658203125
1534597226.280.956787109375,-0.364990234375,-0.000732421875,1.62506103516,0.67138671875,-0.541687011719
1534597226.280.957763671875,-0.36572265625,-0.000244140625,1.54876708984,0.625610351562,-0.350952148438
1534597226.280.955322265625,-0.362548828125,0.001220703125,1.44195556641,0.785827636719,-0.595092773438
1534597226.280.961181640625,-0.364990234375,-0.002685546875,1.65557861328,0.579833984375,-0.381469726562
1534597226.290.96044921875,-0.36376953125,-0.00537109375,1.54876708984,0.755310058594,-0.419616699219
1534597226.290.9580078125,-0.362548828125,-0.004638671875,1.50299072266,0.778198242188,-0.473022460938
1534597226.290.956298828125,-0.36767578125,-0.005126953125,1.54876708984,0.541687011719,-0.526428222656
1534597226.290.954833984375,-0.36865234375,-0.006103515625,1.60980224609,0.556945800781,-0.350952148438
1534597226.290.956787109375,-0.3642578125,-0.0048828125,1.51824951172,0.686645507812,-0.373840332031
1534597226.290.9541015625,-0.36181640625,-0.00439453125,1.65557861328,0.617980957031,-0.251770019531
1534597226.290.952392578125,-0.361328125,-0.004150390625,1.73950195312,0.579833984375,-0.137329101562
1534597226.290.953857421875,-0.36328125,-0.005615234375,1.35803222656,0.648498535156,-0.167846679688
1534597226.290.953857421875,-0.365478515625,-0.004150390625,1.26647949219,0.67138671875,-0.198364257812
1534597226.290.951171875,-0.3642578125,-0.0009765625,1.49536132812,0.480651855469,-0.389099121094
1534597226.30.953125,-0.365234375,0.00048828125,1.67846679688,0.541687011719,-0.358581542969
1534597226.30.955810546875,-0.3701171875,-0.000244140625,1.77001953125,0.572204589844,-0.297546386719
1534597226.30.95166015625,-0.368896484375,-0.00341796875,1.57165527344,0.480651855469,-0.259399414062
1534597226.30.95068359375,-0.366943359375,-0.00537109375,1.37329101562,0.289916992188,-0.411987304688
1534597226.30.9521484375,-0.36767578125,-0.001220703125,1.40380859375,0.42724609375,-0.42724609375
1534597226.30.952880859375,-0.3662109375,0.0,1.44958496094,0.411987304688,-0.42724609375
1534597226.30.9541015625,-0.365234375,-0.005615234375,1.43432617188,0.419616699219,-0.328063964844
1534597226.30.955322265625,-0.3662109375,-0.005615234375,1.60980224609,0.6103515625,-0.175476074219
1534597226.30.95556640625,-0.367431640625,-0.001708984375,1.45721435547,0.495910644531,-0.205993652344
1534597226.30.95556640625,-0.367431640625,-0.001953125,1.37329101562,0.411987304688,-0.160217285156
1534597226.310.95458984375,-0.367431640625,-0.005859375,1.42669677734,0.6103515625,-0.106811523438
1534597226.310.95361328125,-0.3671875,-0.001708984375,1.51824951172,0.572204589844,-0.198364257812
1534597226.310.95361328125,-0.36669921875,0.004150390625,1.61743164062,0.732421875,-0.175476074219
1534597226.310.952880859375,-0.365966796875,-0.001220703125,1.71661376953,0.572204589844,-0.0991821289062
1534597226.310.950927734375,-0.365478515625,-0.00048828125,1.42669677734,0.411987304688,-0.274658203125
1534597226.310.953369140625,-0.365478515625,0.00439453125,1.23596191406,0.350952148438,-0.335693359375
1534597226.310.956298828125,-0.365234375,0.00244140625,1.42669677734,0.373840332031,-0.48828125
1534597226.310.95703125,-0.36474609375,-0.00244140625,1.55639648438,0.503540039062,-0.701904296875
1534597226.310.95556640625,-0.36474609375,-0.005126953125,1.73187255859,0.503540039062,-0.701904296875
1534597226.310.951416015625,-0.365234375,-0.001220703125,1.66320800781,0.457763671875,-0.541687011719
1534597226.320.94921875,-0.366943359375,0.0009765625,1.67846679688,0.579833984375,-0.465393066406
1534597226.320.952392578125,-0.367919921875,-0.000244140625,1.67846679688,0.48828125,-0.656127929688
1534597226.320.95703125,-0.367919921875,-0.006591796875,1.55639648438,0.358581542969,-0.473022460938
1534597226.320.956298828125,-0.368408203125,-0.008544921875,1.49536132812,0.495910644531,-0.274658203125
1534597226.320.9560546875,-0.37060546875,-0.006103515625,1.74713134766,0.595092773438,-0.267028808594
1534597226.320.9560546875,-0.368896484375,-0.00634765625,1.73187255859,0.579833984375,-0.48828125
1534597226.320.9560546875,-0.368896484375,-0.00634765625,1.62506103516,0.495910644531,-0.450134277344
1534597226.320.955078125,-0.363037109375,-0.003662109375,1.60980224609,0.564575195312,-0.442504882812
1534597226.320.95556640625,-0.361572265625,0.00048828125,1.69372558594,0.602722167969,-0.419616699219
1534597226.320.956787109375,-0.367919921875,0.002685546875,1.57928466797,0.465393066406,-0.450134277344
1534597226.320.95703125,-0.369873046875,0.000244140625,1.44958496094,0.328063964844,-0.564575195312
1534597226.330.951171875,-0.365234375,-0.00634765625,1.74713134766,0.373840332031,-0.495910644531
1534597226.330.953125,-0.3671875,-0.00341796875,1.5869140625,0.450134277344,-0.396728515625
1534597226.330.955810546875,-0.36962890625,-0.00146484375,1.51062011719,0.465393066406,-0.328063964844
1534597226.330.95751953125,-0.3701171875,-0.0068359375,1.47247314453,0.541687011719,-0.572204589844
1534597226.330.95751953125,-0.368408203125,-0.005126953125,1.35803222656,0.602722167969,-0.686645507812
1534597226.330.95556640625,-0.36865234375,0.0,1.5869140625,0.717163085938,-0.762939453125
1534597226.330.95654296875,-0.367431640625,0.000244140625,1.64794921875,0.541687011719,-0.839233398438
1534597226.330.953857421875,-0.366455078125,-0.0048828125,1.63269042969,0.595092773438,-0.717163085938
1534597226.330.953369140625,-0.36767578125,-0.005126953125,1.49536132812,0.808715820312,-0.526428222656
1534597226.340.95556640625,-0.365234375,-0.0009765625,1.68609619141,0.709533691406,-0.419616699219
1534597226.340.958251953125,-0.36328125,-0.006103515625,1.56402587891,0.556945800781,-0.297546386719
1534597226.340.957763671875,-0.366943359375,-0.00732421875,1.66320800781,0.572204589844,-0.320434570312
1534597226.340.953857421875,-0.368408203125,-0.00634765625,1.53350830078,0.473022460938,-0.404357910156
1534597226.340.955078125,-0.36669921875,-0.008056640625,1.44958496094,0.648498535156,-0.404357910156
1534597226.340.956298828125,-0.366943359375,-0.001708984375,1.36566162109,0.656127929688,-0.389099121094
1534597226.340.95751953125,-0.365966796875,-0.0009765625,1.48773193359,0.633239746094,-0.480651855469
1534597226.340.953857421875,-0.36279296875,-0.005615234375,1.72424316406,0.694274902344,-0.404357910156
1534597226.340.953125,-0.362548828125,-0.007080078125,1.73950195312,0.648498535156,-0.411987304688
1534597226.340.9560546875,-0.364990234375,-0.0048828125,1.68609619141,0.541687011719,-0.686645507812
1534597226.340.955810546875,-0.3662109375,-0.006591796875,1.46484375,0.633239746094,-0.740051269531
1534597226.350.9580078125,-0.363525390625,-0.004150390625,1.40380859375,0.679016113281,-0.633239746094
1534597226.350.959228515625,-0.365234375,-0.000732421875,1.52587890625,0.495910644531,-0.42724609375
1534597226.350.958251953125,-0.367431640625,-0.00244140625,1.60217285156,0.442504882812,-0.373840332031
1534597226.350.95703125,-0.364990234375,0.001708984375,1.54113769531,0.450134277344,-0.358581542969
1534597226.350.95654296875,-0.3623046875,0.00537109375,1.56402587891,0.381469726562,-0.335693359375
1534597226.350.9560546875,-0.3623046875,0.001953125,1.72424316406,0.350952148438,-0.312805175781
1534597226.350.953369140625,-0.36474609375,-0.00341796875,1.67846679688,0.473022460938,-0.152587890625
1534597226.350.954833984375,-0.365234375,-0.00244140625,1.32751464844,0.686645507812,-0.228881835938
1534597226.350.95556640625,-0.365478515625,-0.00146484375,1.35803222656,0.579833984375,-0.190734863281
1534597226.350.95556640625,-0.365478515625,-0.00146484375,1.60217285156,0.42724609375,-0.274658203125
1534597226.360.95263671875,-0.362548828125,-0.00048828125,1.708984375,0.205993652344,-0.198364257812
1534597226.360.952880859375,-0.363037109375,-0.0009765625,1.66320800781,0.381469726562,-0.328063964844
1534597226.370.95654296875,-0.361572265625,-0.001220703125,1.57928466797,0.640869140625,-0.350952148438
1534597226.370.956787109375,-0.363525390625,-0.00830078125,1.48010253906,0.579833984375,-0.54931640625
1534597226.370.956298828125,-0.364013671875,-0.00439453125,1.48010253906,0.373840332031,-0.3662109375
1534597226.370.955322265625,-0.367431640625,-0.0009765625,1.41143798828,0.328063964844,-0.350952148438
1534597226.370.95458984375,-0.365966796875,-0.0029296875,1.41143798828,0.534057617188,-0.144958496094
1534597226.370.95166015625,-0.36865234375,-0.005615234375,1.30462646484,0.526428222656,-0.213623046875
1534597226.370.954345703125,-0.3662109375,-0.005615234375,1.42669677734,0.823974609375,-0.450134277344
1534597226.380.955322265625,-0.364990234375,-0.002685546875,1.69372558594,0.526428222656,-0.511169433594
1534597226.380.954345703125,-0.36572265625,-0.001953125,1.73950195312,0.198364257812,-0.457763671875
1534597226.380.9521484375,-0.367919921875,0.001708984375,1.62506103516,0.587463378906,-0.450134277344
1534597226.380.9560546875,-0.36181640625,-0.00390625,1.51062011719,0.6103515625,-0.633239746094
1534597226.390.9541015625,-0.3603515625,0.002197265625,1.53350830078,0.587463378906,-0.518798828125
1534597226.390.956787109375,-0.360107421875,0.00390625,1.86157226562,0.381469726562,-0.289916992188
1534597226.390.955322265625,-0.36328125,-0.003173828125,1.70135498047,0.48828125,-0.328063964844
1534597226.390.951416015625,-0.367919921875,-0.00732421875,1.38092041016,0.656127929688,-0.434875488281
1534597226.390.953125,-0.368408203125,-0.009521484375,1.44958496094,0.572204589844,-0.518798828125
1534597226.390.9521484375,-0.368896484375,-0.0068359375,1.25885009766,0.457763671875,-0.564575195312
1534597226.390.9521484375,-0.367919921875,-0.00634765625,1.35040283203,0.442504882812,-0.724792480469
1534597226.40.95703125,-0.3642578125,-0.00341796875,1.51062011719,0.434875488281,-0.495910644531
1534597226.40.954833984375,-0.364013671875,-0.004150390625,1.49536132812,0.686645507812,-0.42724609375
1534597226.40.95263671875,-0.366455078125,-0.001220703125,1.48010253906,0.694274902344,-0.503540039062
1534597226.40.95166015625,-0.3662109375,0.00146484375,1.50299072266,0.648498535156,-0.442504882812
1534597226.40.95556640625,-0.36669921875,0.001708984375,1.51824951172,0.656127929688,-0.518798828125
1534597226.40.95361328125,-0.36669921875,0.0,1.56402587891,0.717163085938,-0.518798828125
1534597226.410.95556640625,-0.365966796875,-0.004638671875,1.57165527344,0.724792480469,-0.335693359375
1534597226.410.9580078125,-0.366455078125,-0.005859375,1.62506103516,0.434875488281,-0.411987304688
1534597226.410.957275390625,-0.3623046875,-0.0048828125,1.708984375,0.541687011719,-0.411987304688
1534597226.410.95751953125,-0.36181640625,-0.00439453125,1.5869140625,0.518798828125,-0.320434570312
1534597226.410.954833984375,-0.365478515625,-0.005615234375,1.84631347656,0.457763671875,-0.282287597656
1534597226.410.956298828125,-0.3671875,-0.003173828125,1.708984375,0.579833984375,-0.617980957031
1534597226.410.958984375,-0.365234375,-0.00244140625,1.68609619141,0.564575195312,-0.564575195312
1534597226.410.95849609375,-0.36474609375,-0.00048828125,1.47247314453,0.663757324219,-0.419616699219
1534597226.420.955322265625,-0.363037109375,0.00390625,1.48773193359,0.625610351562,-0.328063964844
1534597226.420.951904296875,-0.36376953125,0.002197265625,1.48773193359,0.556945800781,-0.328063964844
1534597226.420.9541015625,-0.36572265625,-0.002197265625,1.38854980469,0.556945800781,-0.358581542969
1534597226.420.95556640625,-0.365478515625,-0.000244140625,1.50299072266,0.534057617188,-0.144958496094
1534597226.420.955810546875,-0.363525390625,0.001953125,1.64794921875,0.442504882812,-0.289916992188
1534597226.420.95751953125,-0.36572265625,0.003173828125,1.48773193359,0.6103515625,-0.396728515625
1534597226.420.9560546875,-0.366943359375,0.00341796875,1.60217285156,0.511169433594,-0.434875488281
1534597226.420.955078125,-0.36669921875,-0.00048828125,1.60217285156,0.526428222656,-0.328063964844
1534597226.420.954833984375,-0.369873046875,0.002197265625,1.50299072266,0.54931640625,-0.251770019531
1534597226.420.95556640625,-0.368408203125,0.00244140625,1.52587890625,0.6103515625,-0.30517578125
1534597226.430.95849609375,-0.36572265625,0.001708984375,1.49536132812,0.633239746094,-0.389099121094
1534597226.430.95654296875,-0.3671875,0.0,1.36566162109,0.701904296875,-0.404357910156
1534597226.430.95751953125,-0.365478515625,-0.00341796875,1.54113769531,0.495910644531,-0.473022460938
1534597226.430.96044921875,-0.364990234375,-0.001220703125,1.64031982422,0.411987304688,-0.343322753906
1534597226.430.956298828125,-0.365966796875,-0.003173828125,1.55639648438,0.3662109375,-0.343322753906
1534597226.430.953125,-0.3681640625,-0.0048828125,1.67083740234,0.343322753906,-0.251770019531
1534597226.430.95263671875,-0.3701171875,-0.003662109375,1.80053710938,0.755310058594,-0.473022460938
1534597226.430.9541015625,-0.36865234375,-0.005859375,1.708984375,0.770568847656,-0.480651855469
1534597226.430.956298828125,-0.3671875,-0.00732421875,1.57928466797,0.442504882812,-0.358581542969
1534597226.430.956787109375,-0.3662109375,-0.0029296875,1.51062011719,0.450134277344,-0.396728515625
1534597226.440.953125,-0.36328125,-0.00341796875,1.52587890625,0.640869140625,-0.274658203125
1534597226.440.952392578125,-0.36376953125,-0.0009765625,1.55639648438,0.67138671875,-0.389099121094
1534597226.440.95166015625,-0.364990234375,-0.001220703125,1.49536132812,0.640869140625,-0.411987304688
1534597226.440.953369140625,-0.3671875,-0.001220703125,1.63269042969,0.755310058594,-0.251770019531
1534597226.440.9560546875,-0.36474609375,-0.00048828125,1.56402587891,0.732421875,-0.160217285156
1534597226.440.955078125,-0.3623046875,0.000732421875,1.60980224609,0.518798828125,-0.18310546875
1534597226.440.95751953125,-0.3671875,0.0029296875,1.78527832031,0.541687011719,-0.526428222656
1534597226.440.955810546875,-0.366455078125,0.001708984375,1.67083740234,0.6103515625,-0.694274902344
1534597226.440.953125,-0.36328125,-0.00048828125,1.54113769531,0.6103515625,-0.495910644531
1534597226.440.95654296875,-0.365478515625,-0.00048828125,1.46484375,0.534057617188,-0.297546386719
1534597226.450.95654296875,-0.36767578125,-0.003662109375,1.48773193359,0.511169433594,-0.389099121094
1534597226.450.954345703125,-0.368408203125,-0.001953125,1.62506103516,0.587463378906,-0.457763671875
1534597226.450.951171875,-0.367431640625,0.003662109375,1.69372558594,0.587463378906,-0.282287597656
1534597226.450.95361328125,-0.36572265625,0.00244140625,1.40380859375,0.541687011719,-0.389099121094
1534597226.450.95361328125,-0.36572265625,0.00244140625,1.41906738281,0.595092773438,-0.312805175781
1534597226.450.957275390625,-0.368408203125,-0.0029296875,1.56402587891,0.42724609375,-0.167846679688
1534597226.450.957275390625,-0.368408203125,-0.0029296875,1.46484375,0.335693359375,-0.251770019531
1534597226.450.953857421875,-0.37060546875,0.001953125,1.57928466797,0.526428222656,-0.518798828125
1534597226.450.954833984375,-0.37109375,0.002685546875,1.67846679688,0.335693359375,-0.556945800781
1534597226.450.953857421875,-0.3671875,-0.001953125,1.67083740234,0.572204589844,-0.526428222656
1534597226.460.953857421875,-0.3671875,-0.001953125,1.53350830078,0.701904296875,-0.343322753906
1534597226.460.9541015625,-0.367431640625,0.0029296875,1.47247314453,0.770568847656,-0.42724609375
1534597226.460.952392578125,-0.367431640625,0.00390625,1.5869140625,0.617980957031,-0.617980957031
1534597226.460.951904296875,-0.36474609375,0.001220703125,1.69372558594,0.42724609375,-0.587463378906
1534597226.460.954345703125,-0.365234375,0.004638671875,1.60217285156,0.6103515625,-0.297546386719
1534597226.460.955322265625,-0.363525390625,0.005126953125,1.51824951172,0.640869140625,-0.198364257812
1534597226.460.957275390625,-0.364013671875,0.0,1.44958496094,0.572204589844,-0.236511230469
1534597226.460.960205078125,-0.36572265625,-0.004150390625,1.51062011719,0.587463378906,-0.404357910156
1534597226.460.957275390625,-0.365478515625,-0.00244140625,1.46484375,0.587463378906,-0.48828125
1534597226.460.957275390625,-0.365234375,0.001953125,1.48773193359,0.808715820312,-0.54931640625
1534597226.470.95751953125,-0.365478515625,0.00244140625,1.44195556641,0.862121582031,-0.633239746094
1534597226.470.9541015625,-0.367431640625,-0.000244140625,1.30462646484,0.617980957031,-0.587463378906
1534597226.470.95556640625,-0.369384765625,-0.001220703125,1.28936767578,0.442504882812,-0.602722167969
1534597226.470.956787109375,-0.36572265625,-0.001220703125,1.51062011719,0.442504882812,-0.762939453125
1534597226.470.957275390625,-0.364501953125,-0.003173828125,1.57165527344,0.541687011719,-0.602722167969
1534597226.470.958251953125,-0.364990234375,-0.00439453125,1.39617919922,0.755310058594,-0.556945800781
1534597226.470.956298828125,-0.364013671875,0.000244140625,1.33514404297,0.846862792969,-0.457763671875
1534597226.470.956298828125,-0.3662109375,0.004150390625,1.52587890625,0.892639160156,-0.48828125
1534597226.470.957763671875,-0.3681640625,0.00146484375,1.59454345703,0.801086425781,-0.48828125
1534597226.470.95556640625,-0.36767578125,-0.002197265625,1.57928466797,0.587463378906,-0.442504882812
1534597226.480.953857421875,-0.3681640625,-0.003662109375,1.53350830078,0.54931640625,-0.396728515625
1534597226.480.9541015625,-0.3671875,0.0,1.64794921875,0.503540039062,-0.419616699219
1534597226.480.9560546875,-0.36572265625,0.00390625,1.51062011719,0.160217285156,-0.480651855469
1534597226.480.955810546875,-0.36376953125,0.004638671875,1.32751464844,0.389099121094,-0.595092773438
1534597226.480.954345703125,-0.364013671875,0.00390625,1.48010253906,0.732421875,-0.511169433594
1534597226.480.955810546875,-0.36572265625,0.003173828125,1.42669677734,0.648498535156,-0.42724609375
1534597226.480.959228515625,-0.365234375,0.0009765625,1.55639648438,0.770568847656,-0.457763671875
1534597226.480.95849609375,-0.3681640625,-0.001220703125,1.67846679688,0.701904296875,-0.297546386719
1534597226.480.95703125,-0.36865234375,-0.0009765625,1.54113769531,0.457763671875,-0.129699707031
1534597226.480.955078125,-0.3662109375,-0.001708984375,1.60980224609,0.404357910156,-0.328063964844
1534597226.490.952880859375,-0.365478515625,-0.00244140625,1.708984375,0.587463378906,-0.442504882812
1534597226.490.953857421875,-0.365234375,-0.00634765625,1.63269042969,0.579833984375,-0.274658203125
1534597226.490.954345703125,-0.36328125,-0.007568359375,1.60217285156,0.625610351562,-0.228881835938
1534597226.490.954833984375,-0.365966796875,-0.004638671875,1.46484375,0.656127929688,-0.335693359375
1534597226.490.957275390625,-0.36865234375,-0.0068359375,1.37329101562,0.396728515625,-0.289916992188
1534597226.490.95849609375,-0.36572265625,-0.00537109375,1.42669677734,0.3662109375,-0.320434570312
1534597226.490.957763671875,-0.36328125,-0.003662109375,1.5869140625,0.625610351562,-0.160217285156
1534597226.490.95654296875,-0.36328125,-0.003662109375,1.80816650391,0.724792480469,-0.320434570312
1534597226.490.954345703125,-0.364990234375,-0.002197265625,1.88446044922,0.457763671875,-0.442504882812
1534597226.490.955322265625,-0.365478515625,-0.000244140625,1.77764892578,0.335693359375,-0.3662109375
1534597226.50.956298828125,-0.3642578125,0.001220703125,1.38092041016,0.236511230469,-0.259399414062
1534597226.50.955810546875,-0.361083984375,-0.003173828125,1.47247314453,0.442504882812,-0.198364257812
1534597226.50.955078125,-0.362060546875,-0.006103515625,1.79290771484,0.556945800781,-0.213623046875
1534597226.50.95458984375,-0.363525390625,-0.004638671875,1.68609619141,0.656127929688,-0.335693359375
1534597226.50.95263671875,-0.36474609375,-0.00634765625,1.48773193359,0.556945800781,-0.312805175781
1534597226.50.94970703125,-0.3671875,-0.00732421875,1.39617919922,0.602722167969,-0.267028808594
1534597226.50.9521484375,-0.364501953125,-0.0048828125,1.43432617188,0.6103515625,-0.396728515625
1534597226.50.956298828125,-0.36328125,-0.001220703125,1.55639648438,0.411987304688,-0.457763671875
1534597226.50.95703125,-0.365234375,0.001708984375,1.66320800781,0.503540039062,-0.343322753906
1534597226.50.955078125,-0.365478515625,-0.002197265625,1.48773193359,0.595092773438,-0.587463378906
1534597226.50.953369140625,-0.36767578125,-0.005615234375,1.38854980469,0.686645507812,-0.656127929688
1534597226.510.956787109375,-0.369140625,-0.007080078125,1.62506103516,0.602722167969,-0.343322753906
1534597226.510.957275390625,-0.3662109375,-0.0009765625,1.61743164062,0.495910644531,-0.160217285156
1534597226.510.954345703125,-0.36474609375,0.0,1.64794921875,0.534057617188,-0.358581542969
1534597226.510.95361328125,-0.3662109375,-0.009521484375,1.51062011719,0.579833984375,-0.480651855469
1534597226.510.9521484375,-0.3662109375,-0.00830078125,1.51062011719,0.465393066406,-0.343322753906
1534597226.510.953369140625,-0.3671875,-0.0048828125,1.43432617188,0.495910644531,-0.480651855469
1534597226.510.954345703125,-0.3681640625,-0.002685546875,1.29699707031,0.259399414062,-0.511169433594
1534597226.510.95458984375,-0.3671875,-0.001708984375,1.31988525391,0.289916992188,-0.457763671875
1534597226.510.954345703125,-0.369873046875,-0.005126953125,1.38092041016,0.663757324219,-0.48828125
1534597226.510.95556640625,-0.36767578125,-0.007080078125,1.708984375,0.663757324219,-0.755310058594
1534597226.520.955322265625,-0.363037109375,-0.0068359375,1.51062011719,0.762939453125,-0.694274902344
1534597226.530.953369140625,-0.36376953125,-0.000732421875,1.48773193359,0.617980957031,-0.434875488281
1534597226.530.955078125,-0.364501953125,0.00390625,1.45721435547,0.564575195312,-0.465393066406
1534597226.530.954833984375,-0.363525390625,0.000244140625,1.5869140625,0.762939453125,-0.686645507812
1534597226.530.955078125,-0.363525390625,-0.00390625,1.50299072266,0.595092773438,-0.717163085938
1534597226.530.95703125,-0.3681640625,0.000732421875,1.42669677734,0.686645507812,-0.701904296875
1534597226.540.958251953125,-0.3671875,0.00537109375,1.60980224609,0.541687011719,-0.373840332031
1534597226.540.955810546875,-0.367431640625,-0.0029296875,1.77001953125,0.503540039062,-0.289916992188
1534597226.540.95361328125,-0.3662109375,-0.002685546875,1.47247314453,0.663757324219,-0.335693359375
1534597226.540.953125,-0.365478515625,-0.00439453125,1.29699707031,0.663757324219,-0.572204589844
1534597226.540.95361328125,-0.36474609375,-0.0048828125,1.44958496094,0.67138671875,-0.411987304688
1534597226.540.951171875,-0.366455078125,0.0,1.66320800781,0.350952148438,-0.42724609375
1534597226.540.95263671875,-0.363525390625,-0.0029296875,1.72424316406,0.221252441406,-0.42724609375
1534597226.540.953369140625,-0.363037109375,0.0,1.67846679688,0.54931640625,-0.48828125
1534597226.550.9541015625,-0.36474609375,-0.00146484375,1.38092041016,0.30517578125,-0.114440917969
1534597226.550.95068359375,-0.364013671875,-0.0048828125,1.45721435547,0.511169433594,-0.0762939453125
1534597226.550.9501953125,-0.366455078125,-0.003173828125,1.65557861328,0.465393066406,-0.0152587890625
1534597226.560.9521484375,-0.365966796875,-0.00439453125,1.62506103516,0.259399414062,-0.320434570312
1534597226.560.953857421875,-0.364990234375,-0.00390625,1.56402587891,0.3662109375,-0.358581542969
1534597226.560.9560546875,-0.36376953125,0.0009765625,1.43432617188,0.465393066406,-0.289916992188
1534597226.560.9580078125,-0.36279296875,-0.001708984375,1.55639648438,0.251770019531,-0.091552734375
1534597226.560.956787109375,-0.364501953125,-0.000244140625,1.39617919922,0.343322753906,-0.404357910156
1534597226.560.95556640625,-0.36474609375,0.005859375,1.57165527344,0.350952148438,-0.480651855469
1534597226.560.9560546875,-0.365478515625,-0.00439453125,1.40380859375,0.587463378906,-0.274658203125
1534597226.560.95556640625,-0.36865234375,-0.0029296875,1.51062011719,0.526428222656,-0.267028808594
1534597226.570.95703125,-0.369873046875,-0.004150390625,1.68609619141,0.320434570312,-0.389099121094
1534597226.570.95654296875,-0.3671875,0.0048828125,1.45721435547,0.404357910156,-0.3662109375
1534597226.570.957763671875,-0.3671875,0.0009765625,1.45721435547,0.373840332031,-0.30517578125
1534597226.570.95458984375,-0.366455078125,-0.0009765625,1.51824951172,0.42724609375,-0.373840332031
1534597226.570.955078125,-0.366455078125,-0.00146484375,1.64031982422,0.694274902344,-0.350952148438
1534597226.570.95654296875,-0.364990234375,0.004150390625,1.69372558594,0.717163085938,-0.343322753906
1534597226.570.957763671875,-0.364990234375,0.00341796875,1.39617919922,0.617980957031,-0.312805175781
1534597226.570.958251953125,-0.364990234375,-0.0009765625,1.17492675781,0.450134277344,-0.511169433594
1534597226.580.958251953125,-0.36279296875,-0.002197265625,1.5869140625,0.48828125,-0.717163085938
1534597226.580.95751953125,-0.36083984375,-0.002685546875,1.67846679688,0.595092773438,-0.564575195312
1534597226.580.957763671875,-0.363037109375,-0.005126953125,1.62506103516,0.778198242188,-0.541687011719
1534597226.580.955810546875,-0.364990234375,-0.001953125,1.51062011719,0.808715820312,-0.541687011719
1534597226.580.956298828125,-0.365966796875,-0.00146484375,1.38854980469,0.709533691406,-0.404357910156
1534597226.580.954833984375,-0.36767578125,-0.004638671875,1.40380859375,0.602722167969,-0.442504882812
1534597226.580.952392578125,-0.36669921875,-0.00341796875,1.54113769531,0.633239746094,-0.450134277344
1534597226.580.953369140625,-0.365478515625,-0.00634765625,1.65557861328,0.495910644531,-0.42724609375
1534597226.580.953857421875,-0.36572265625,-0.005859375,1.54876708984,0.457763671875,-0.511169433594
1534597226.580.957763671875,-0.365966796875,-0.00390625,1.37329101562,0.617980957031,-0.442504882812
1534597226.590.955810546875,-0.367919921875,-0.00634765625,1.42669677734,0.801086425781,-0.312805175781
1534597226.590.953125,-0.368408203125,-0.00341796875,1.50299072266,0.762939453125,-0.259399414062
1534597226.590.954833984375,-0.365478515625,-0.00244140625,1.71661376953,0.473022460938,-0.404357910156
1534597226.590.955322265625,-0.36572265625,-0.00341796875,1.66320800781,0.54931640625,-0.6103515625
1534597226.590.955810546875,-0.36669921875,-0.004638671875,1.50299072266,0.709533691406,-0.595092773438
1534597226.590.954345703125,-0.367431640625,-0.007080078125,1.60980224609,0.617980957031,-0.42724609375
1534597226.590.9560546875,-0.369384765625,-0.003173828125,1.69372558594,0.732421875,-0.495910644531
1534597226.590.955078125,-0.36962890625,-0.00341796875,1.59454345703,0.633239746094,-0.434875488281
1534597226.590.954833984375,-0.36865234375,-0.008544921875,1.33514404297,0.411987304688,-0.473022460938
1534597226.590.95849609375,-0.36279296875,-0.00732421875,1.35803222656,0.389099121094,-0.457763671875
1534597226.60.958251953125,-0.3623046875,-0.006591796875,1.44195556641,0.701904296875,-0.434875488281
1534597226.60.95556640625,-0.367431640625,-0.007080078125,1.48010253906,0.587463378906,-0.343322753906
1534597226.60.954345703125,-0.3662109375,-0.00244140625,1.53350830078,0.3662109375,-0.282287597656
1534597226.60.95751953125,-0.366455078125,-0.000732421875,1.48773193359,0.457763671875,-0.396728515625
1534597226.60.95556640625,-0.368408203125,-0.0009765625,1.67083740234,0.6103515625,-0.480651855469
1534597226.60.952392578125,-0.3681640625,-0.000244140625,1.35040283203,0.602722167969,-0.419616699219
1534597226.60.95361328125,-0.3701171875,0.0029296875,1.27410888672,0.350952148438,-0.411987304688
1534597226.60.955078125,-0.367431640625,0.002685546875,1.41143798828,0.42724609375,-0.450134277344
1534597226.60.95556640625,-0.364013671875,0.000244140625,1.48010253906,0.503540039062,-0.518798828125
1534597226.60.95263671875,-0.36474609375,-0.001708984375,1.46484375,0.503540039062,-0.381469726562
1534597226.610.95263671875,-0.364501953125,-0.001220703125,1.44195556641,0.473022460938,-0.350952148438
1534597226.610.95263671875,-0.364013671875,-0.00048828125,1.50299072266,0.602722167969,-0.457763671875
1534597226.610.954345703125,-0.362548828125,-0.005126953125,1.60980224609,0.518798828125,-0.602722167969
1534597226.610.955810546875,-0.36376953125,-0.00244140625,1.47247314453,0.396728515625,-0.457763671875
1534597226.610.953369140625,-0.36376953125,0.003173828125,1.36566162109,0.442504882812,-0.343322753906
1534597226.610.953125,-0.36376953125,-0.00146484375,1.41143798828,0.633239746094,-0.42724609375
1534597226.610.9560546875,-0.3671875,-0.0068359375,1.59454345703,0.473022460938,-0.442504882812
1534597226.610.958984375,-0.367431640625,-0.005859375,1.60217285156,0.526428222656,-0.503540039062
1534597226.610.95751953125,-0.3662109375,-0.008544921875,1.64031982422,0.473022460938,-0.518798828125
1534597226.610.95556640625,-0.363525390625,-0.013427734375,1.60980224609,0.3662109375,-0.54931640625
1534597226.620.9541015625,-0.362548828125,-0.008544921875,1.51062011719,0.724792480469,-0.434875488281
1534597226.620.954345703125,-0.3642578125,-0.00390625,1.57165527344,0.816345214844,-0.373840332031
1534597226.620.956298828125,-0.36572265625,0.0,1.64031982422,0.473022460938,-0.411987304688
1534597226.620.95556640625,-0.368408203125,-0.001708984375,1.53350830078,0.404357910156,-0.259399414062
1534597226.620.953857421875,-0.36572265625,-0.0048828125,1.54876708984,0.54931640625,-0.328063964844
1534597226.620.954345703125,-0.362548828125,0.000732421875,1.43432617188,0.663757324219,-0.518798828125
1534597226.620.9560546875,-0.363525390625,0.00146484375,1.31988525391,0.717163085938,-0.457763671875
1534597226.620.955810546875,-0.366455078125,-0.001220703125,1.36566162109,0.755310058594,-0.30517578125
1534597226.620.953125,-0.368896484375,-0.00341796875,1.48010253906,0.48828125,-0.396728515625
1534597226.620.953369140625,-0.367431640625,-0.00341796875,1.45721435547,0.556945800781,-0.663757324219
1534597226.630.956298828125,-0.364013671875,-0.00634765625,1.67846679688,0.648498535156,-0.495910644531
1534597226.630.956787109375,-0.364501953125,-0.00439453125,1.75476074219,0.648498535156,-0.42724609375
1534597226.630.955322265625,-0.366943359375,-0.001708984375,1.67846679688,0.709533691406,-0.495910644531
1534597226.630.955810546875,-0.369140625,-0.005126953125,1.46484375,0.541687011719,-0.503540039062
1534597226.630.955078125,-0.367919921875,-0.00341796875,1.48773193359,0.419616699219,-0.358581542969
1534597226.630.95263671875,-0.365234375,-0.0009765625,1.59454345703,0.686645507812,-0.267028808594
1534597226.630.953125,-0.36083984375,0.00048828125,1.63269042969,0.877380371094,-0.236511230469
1534597226.630.953125,-0.36083984375,0.00048828125,1.69372558594,0.747680664062,-0.297546386719
1534597226.640.954833984375,-0.367919921875,0.0009765625,1.51062011719,0.54931640625,-0.30517578125
1534597226.640.954833984375,-0.367919921875,0.0009765625,1.53350830078,0.572204589844,-0.411987304688
1534597226.640.95361328125,-0.36572265625,-0.004638671875,1.50299072266,0.54931640625,-0.373840332031
1534597226.640.9501953125,-0.36572265625,-0.00244140625,1.35803222656,0.503540039062,-0.320434570312
1534597226.640.950439453125,-0.364990234375,-0.002197265625,1.44195556641,0.457763671875,-0.259399414062
1534597226.640.95458984375,-0.36572265625,-0.00390625,1.67846679688,0.503540039062,-0.190734863281
1534597226.640.95654296875,-0.366455078125,0.00048828125,1.54876708984,0.495910644531,-0.0762939453125
1534597226.640.954345703125,-0.3681640625,-0.002685546875,1.30462646484,0.404357910156,-0.236511230469
1534597226.640.953125,-0.367431640625,-0.00830078125,1.220703125,0.381469726562,-0.320434570312
1534597226.640.957763671875,-0.363037109375,-0.003662109375,1.30462646484,0.54931640625,-0.450134277344
1534597226.650.959228515625,-0.365966796875,-0.001220703125,1.48010253906,0.663757324219,-0.205993652344
1534597226.650.957275390625,-0.36962890625,0.00146484375,1.57928466797,0.679016113281,-0.137329101562
1534597226.650.953857421875,-0.369140625,0.00390625,1.63269042969,0.54931640625,-0.236511230469
1534597226.650.95166015625,-0.36669921875,0.000732421875,1.50299072266,0.396728515625,-0.0152587890625
1534597226.650.951416015625,-0.36328125,-0.0029296875,1.41143798828,0.259399414062,0.0
1534597226.650.95166015625,-0.364013671875,-0.001708984375,1.41143798828,0.312805175781,-0.106811523438
1534597226.650.953857421875,-0.366455078125,-0.00341796875,1.32751464844,0.404357910156,-0.244140625
1534597226.650.95263671875,-0.37109375,-0.009033203125,1.54876708984,0.663757324219,-0.457763671875
1534597226.650.9521484375,-0.370361328125,-0.006103515625,1.57165527344,0.709533691406,-0.343322753906
1534597226.650.954345703125,-0.366943359375,-0.003173828125,1.57165527344,0.595092773438,-0.274658203125
1534597226.650.952392578125,-0.366455078125,-0.003662109375,1.44958496094,0.541687011719,-0.274658203125
1534597226.660.95166015625,-0.368896484375,-0.00146484375,1.43432617188,0.320434570312,-0.06103515625
1534597226.660.951904296875,-0.372802734375,0.003662109375,1.42669677734,0.228881835938,0.030517578125
1534597226.660.9521484375,-0.369384765625,0.000732421875,1.65557861328,0.389099121094,-0.221252441406
1534597226.660.954345703125,-0.36474609375,-0.00146484375,1.75476074219,0.67138671875,-0.213623046875
1534597226.660.954345703125,-0.3642578125,-0.002197265625,1.73187255859,0.991821289062,-0.205993652344
1534597226.670.952880859375,-0.364501953125,-0.00439453125,1.60217285156,0.892639160156,-0.297546386719
1534597226.670.954345703125,-0.36767578125,-0.002685546875,1.59454345703,0.67138671875,-0.434875488281
1534597226.670.95458984375,-0.3642578125,-0.000244140625,1.68609619141,0.358581542969,-0.572204589844
1534597226.670.954833984375,-0.3701171875,-0.00146484375,1.68609619141,0.480651855469,-0.473022460938
1534597226.670.957275390625,-0.3681640625,-0.004150390625,1.41143798828,0.495910644531,-0.465393066406
1534597226.680.9501953125,-0.367431640625,-0.00439453125,1.55639648438,0.411987304688,-0.54931640625
1534597226.680.953125,-0.363525390625,-0.004638671875,1.59454345703,0.694274902344,-0.541687011719
1534597226.680.956298828125,-0.365234375,-0.00341796875,1.44958496094,0.602722167969,-0.67138671875
1534597226.680.9580078125,-0.36767578125,-0.001953125,1.21307373047,0.602722167969,-0.663757324219
1534597226.680.95458984375,-0.364501953125,0.0009765625,1.25122070312,0.724792480469,-0.694274902344
1534597226.690.956298828125,-0.364990234375,0.000732421875,1.52587890625,0.839233398438,-0.968933105469
1534597226.690.9580078125,-0.36328125,-0.004150390625,1.66320800781,0.747680664062,-0.869750976562
1534597226.690.959228515625,-0.366455078125,-0.001708984375,1.83868408203,0.633239746094,-0.816345214844
1534597226.690.959716796875,-0.365234375,0.00146484375,1.72424316406,0.701904296875,-0.862121582031
1534597226.690.957275390625,-0.361572265625,0.001953125,1.3427734375,0.679016113281,-0.717163085938
1534597226.690.9560546875,-0.365966796875,-0.0029296875,1.44195556641,0.656127929688,-0.801086425781
1534597226.690.954345703125,-0.362060546875,-0.004150390625,1.65557861328,0.663757324219,-0.740051269531
1534597226.70.955810546875,-0.364501953125,-0.00341796875,1.41906738281,0.67138671875,-0.778198242188
1534597226.70.958251953125,-0.364501953125,-0.00341796875,1.29699707031,0.724792480469,-0.885009765625
1534597226.70.95556640625,-0.36083984375,0.0,1.50299072266,0.961303710938,-0.808715820312
1534597226.70.95751953125,-0.359619140625,-0.001220703125,1.44195556641,0.923156738281,-0.724792480469
1534597226.70.961181640625,-0.363037109375,0.001708984375,1.71661376953,0.358581542969,-0.511169433594
1534597226.70.95703125,-0.361328125,0.001220703125,1.51062011719,0.54931640625,-0.6103515625
1534597226.710.95654296875,-0.361083984375,-0.00244140625,1.51824951172,0.396728515625,-0.556945800781
1534597226.710.956787109375,-0.364990234375,-0.001708984375,1.56402587891,0.640869140625,-0.381469726562
1534597226.710.956298828125,-0.361572265625,-0.003173828125,1.65557861328,0.656127929688,-0.442504882812
1534597226.710.954833984375,-0.36328125,-0.002685546875,1.65557861328,0.709533691406,-0.312805175781
1534597226.710.95458984375,-0.364013671875,-0.0029296875,1.57165527344,0.656127929688,-0.320434570312
1534597226.710.95654296875,-0.3623046875,-0.00390625,1.54876708984,0.633239746094,-0.213623046875
1534597226.710.95458984375,-0.362060546875,-0.004150390625,1.44958496094,0.328063964844,-0.175476074219
1534597226.720.951171875,-0.364013671875,0.001220703125,1.59454345703,0.495910644531,-0.0534057617188
1534597226.720.95458984375,-0.3603515625,-0.000732421875,1.35803222656,0.579833984375,-0.0457763671875
1534597226.720.957275390625,-0.361083984375,-0.002685546875,1.31988525391,0.503540039062,-0.160217285156
1534597226.720.957275390625,-0.363525390625,-0.006103515625,1.37329101562,0.511169433594,-0.137329101562
1534597226.720.958740234375,-0.36474609375,0.00390625,1.67846679688,0.434875488281,-0.091552734375
1534597226.720.9599609375,-0.362548828125,-0.0029296875,1.68609619141,0.389099121094,0.0686645507812
1534597226.720.958251953125,-0.364013671875,-0.003662109375,1.45721435547,0.343322753906,0.198364257812
1534597226.730.956298828125,-0.36669921875,0.000732421875,1.45721435547,0.274658203125,0.106811523438
1534597226.730.951904296875,-0.36328125,0.00146484375,1.51062011719,0.350952148438,0.0991821289062
1534597226.730.952392578125,-0.362060546875,-0.00146484375,1.51824951172,0.617980957031,0.175476074219
1534597226.730.95458984375,-0.3662109375,0.00244140625,1.64031982422,0.541687011719,0.137329101562
1534597226.730.9521484375,-0.36474609375,0.00390625,1.61743164062,0.473022460938,0.030517578125
1534597226.730.95361328125,-0.36279296875,-0.001708984375,1.44958496094,0.518798828125,0.175476074219
1534597226.730.9541015625,-0.366455078125,-0.007568359375,1.51062011719,0.686645507812,0.137329101562
1534597226.730.953125,-0.365966796875,-0.004150390625,1.65557861328,0.747680664062,0.0457763671875
1534597226.730.95458984375,-0.364013671875,0.000244140625,1.5869140625,0.595092773438,0.0457763671875
1534597226.740.950927734375,-0.36767578125,-0.0048828125,1.68609619141,0.511169433594,0.00762939453125
1534597226.740.951904296875,-0.3662109375,-0.001220703125,1.69372558594,0.595092773438,0.0686645507812
1534597226.740.95361328125,-0.365234375,-0.00537109375,1.5869140625,0.564575195312,0.0152587890625
1534597226.740.95458984375,-0.365478515625,-0.003173828125,1.42669677734,0.579833984375,0.0686645507812
1534597226.740.95263671875,-0.36669921875,-0.00146484375,1.47247314453,0.572204589844,-0.030517578125
1534597226.740.95263671875,-0.364990234375,-0.006103515625,1.44195556641,0.42724609375,-0.0762939453125
1534597226.740.95654296875,-0.364990234375,-0.0068359375,1.51062011719,0.373840332031,-0.106811523438
1534597226.740.95458984375,-0.36962890625,-0.008544921875,1.61743164062,0.3662109375,0.091552734375
1534597226.740.951416015625,-0.366455078125,-0.00537109375,1.53350830078,0.541687011719,0.06103515625
1534597226.740.951416015625,-0.366455078125,-0.00537109375,1.52587890625,0.6103515625,-0.328063964844
1534597226.750.953369140625,-0.36328125,-0.002197265625,1.63269042969,0.312805175781,-0.381469726562
