CSV format: Accelerometer x value, acclerometer y value, accelerometer z value, gyroscope x value, gyroscope y value, gyroscope z value
Sample frequency: 100Hz
1534595839.620.9541015625,-0.364990234375,-0.001220703125,1.61743164062,0.572204589844,-0.358581542969
1534595839.630.9560546875,-0.366455078125,-0.00244140625,1.64794921875,0.48828125,-0.175476074219
1534595839.630.953369140625,-0.366455078125,-0.001708984375,1.25885009766,0.801086425781,-0.3662109375
1534595839.630.956298828125,-0.36669921875,-0.0029296875,1.64031982422,0.518798828125,-0.289916992188
1534595839.630.94921875,-0.366943359375,0.003662109375,1.5869140625,0.556945800781,-0.389099121094
1534595839.640.9501953125,-0.36572265625,-0.001953125,1.49536132812,0.198364257812,-0.442504882812
1534595839.640.949951171875,-0.371337890625,0.000732421875,1.57165527344,0.602722167969,-0.30517578125
1534595839.640.95166015625,-0.369873046875,-0.001220703125,1.41906738281,0.587463378906,-0.236511230469
1534595839.640.95458984375,-0.3681640625,-0.0009765625,1.51062011719,0.480651855469,-0.48828125
1534595839.650.9560546875,-0.37109375,-0.00390625,1.78527832031,0.564575195312,-0.541687011719
1534595839.650.9560546875,-0.370849609375,-0.006591796875,1.67083740234,0.495910644531,-0.473022460938
1534595839.650.953857421875,-0.36767578125,0.00341796875,1.67846679688,0.938415527344,-0.335693359375
1534595839.650.95263671875,-0.36767578125,0.00439453125,1.35040283203,0.816345214844,-0.42724609375
1534595839.660.95361328125,-0.368896484375,0.0,1.51824951172,0.6103515625,-0.541687011719
1534595839.660.954345703125,-0.368408203125,-0.003173828125,1.21307373047,0.839233398438,-0.785827636719
1534595839.660.951416015625,-0.367919921875,0.00634765625,1.51824951172,0.831604003906,-0.442504882812
1534595839.660.95361328125,-0.3671875,-0.000244140625,1.60980224609,0.450134277344,-0.579833984375
1534595839.660.95361328125,-0.36572265625,-0.00244140625,1.44195556641,0.656127929688,-0.625610351562
1534595839.660.955322265625,-0.3662109375,-0.004150390625,1.41906738281,0.679016113281,-0.511169433594
1534595839.660.95263671875,-0.3671875,-0.005615234375,1.49536132812,0.54931640625,-0.511169433594
1534595839.660.951416015625,-0.369140625,-0.001220703125,1.46484375,0.747680664062,-0.579833984375
1534595839.670.953125,-0.3681640625,0.001220703125,1.68609619141,0.633239746094,-0.564575195312
1534595839.670.95361328125,-0.368408203125,-0.00537109375,1.65557861328,0.625610351562,-0.587463378906
1534595839.670.950927734375,-0.366455078125,-0.002685546875,1.46484375,0.686645507812,-0.328063964844
1534595839.670.951904296875,-0.3662109375,0.00048828125,1.71661376953,0.885009765625,-0.175476074219
1534595839.670.953857421875,-0.366455078125,-0.00048828125,1.53350830078,0.862121582031,-0.381469726562
1534595839.670.94970703125,-0.366943359375,-0.00732421875,1.35040283203,0.587463378906,-0.717163085938
1534595839.670.951416015625,-0.365478515625,-0.00146484375,1.45721435547,0.747680664062,-0.564575195312
1534595839.670.9521484375,-0.366943359375,0.00048828125,1.54113769531,0.762939453125,-0.625610351562
1534595839.680.953857421875,-0.3662109375,-0.00537109375,1.64031982422,0.755310058594,-0.511169433594
1534595839.680.95166015625,-0.3662109375,-0.006103515625,1.44195556641,0.686645507812,-0.541687011719
1534595839.680.94873046875,-0.369384765625,-0.01025390625,1.3427734375,0.389099121094,-0.343322753906
1534595839.680.955810546875,-0.36669921875,0.000732421875,1.46484375,0.419616699219,-0.343322753906
1534595839.680.95751953125,-0.368408203125,-0.001708984375,1.48010253906,0.640869140625,-0.350952148438
1534595839.680.955322265625,-0.3681640625,-0.000732421875,1.55639648438,0.434875488281,-0.198364257812
1534595839.680.951416015625,-0.3681640625,-0.0009765625,1.52587890625,0.381469726562,-0.564575195312
1534595839.680.952392578125,-0.371826171875,0.002685546875,1.33514404297,0.396728515625,-0.587463378906
1534595839.690.955810546875,-0.37060546875,0.002685546875,1.38854980469,0.602722167969,-0.213623046875
1534595839.690.95263671875,-0.369384765625,0.0,1.45721435547,0.381469726562,-0.328063964844
1534595839.690.951416015625,-0.36962890625,-0.00146484375,1.48010253906,0.381469726562,-0.48828125
1534595839.690.954345703125,-0.36474609375,-0.00390625,1.56402587891,0.411987304688,-0.396728515625
1534595839.690.954833984375,-0.365478515625,-0.005126953125,1.35803222656,0.450134277344,-0.42724609375
1534595839.70.956298828125,-0.36669921875,0.00146484375,1.38854980469,0.54931640625,-0.42724609375
1534595839.70.95458984375,-0.36767578125,0.003173828125,1.54876708984,0.556945800781,-0.556945800781
1534595839.710.95751953125,-0.367919921875,0.005615234375,1.5869140625,0.373840332031,-0.579833984375
1534595839.710.9580078125,-0.369873046875,0.00341796875,1.38854980469,0.572204589844,-0.556945800781
1534595839.710.9560546875,-0.3720703125,-0.002197265625,1.22833251953,0.465393066406,-0.3662109375
1534595839.710.954833984375,-0.36669921875,-0.004150390625,1.38092041016,0.640869140625,-0.42724609375
1534595839.710.953369140625,-0.3662109375,-0.00390625,1.31225585938,0.595092773438,-0.473022460938
1534595839.710.95166015625,-0.37060546875,-0.00537109375,1.53350830078,0.434875488281,-0.587463378906
1534595839.720.952392578125,-0.368896484375,-0.00390625,1.53350830078,0.686645507812,-0.343322753906
1534595839.720.95556640625,-0.3662109375,0.00341796875,1.70135498047,0.701904296875,-0.411987304688
1534595839.720.952880859375,-0.366455078125,-0.005859375,1.48773193359,0.930786132812,-0.42724609375
1534595839.720.95068359375,-0.3671875,-0.00439453125,1.50299072266,0.91552734375,-0.419616699219
1534595839.720.95703125,-0.367431640625,-0.005615234375,1.54113769531,0.679016113281,-0.595092773438
1534595839.730.95458984375,-0.370849609375,-0.003173828125,1.57928466797,0.6103515625,-0.389099121094
1534595839.730.9541015625,-0.36865234375,-0.002685546875,1.55639648438,0.518798828125,-0.457763671875
1534595839.730.951171875,-0.370361328125,0.000244140625,1.48010253906,0.625610351562,-0.320434570312
1534595839.740.95556640625,-0.37060546875,0.00048828125,1.64794921875,0.381469726562,-0.289916992188
1534595839.740.954345703125,-0.370361328125,0.001708984375,1.56402587891,0.244140625,-0.396728515625
1534595839.740.955810546875,-0.3662109375,-0.005126953125,1.37329101562,0.740051269531,-0.30517578125
1534595839.750.95263671875,-0.366943359375,-0.00537109375,1.46484375,0.572204589844,-0.30517578125
1534595839.750.951904296875,-0.36767578125,-0.0009765625,1.37329101562,0.42724609375,-0.0534057617188
1534595839.750.954833984375,-0.366943359375,-0.001708984375,1.46484375,0.389099121094,-0.106811523438
1534595839.750.954833984375,-0.369384765625,-0.00439453125,1.53350830078,0.343322753906,-0.0839233398438
1534595839.750.94970703125,-0.371826171875,-0.0009765625,1.59454345703,0.30517578125,-0.30517578125
1534595839.760.952392578125,-0.371826171875,0.001220703125,1.51824951172,0.648498535156,-0.396728515625
1534595839.760.95556640625,-0.368896484375,-0.003173828125,1.45721435547,0.198364257812,-0.221252441406
1534595839.760.953125,-0.369873046875,0.00439453125,1.67846679688,0.633239746094,-0.244140625
1534595839.760.9501953125,-0.369140625,0.006103515625,1.29699707031,0.892639160156,-0.457763671875
1534595839.760.95166015625,-0.37109375,0.001708984375,1.37329101562,0.823974609375,-0.343322753906
1534595839.760.9501953125,-0.369384765625,-0.004150390625,1.62506103516,0.663757324219,-0.350952148438
1534595839.760.954345703125,-0.3681640625,0.0009765625,1.65557861328,0.747680664062,-0.3662109375
1534595839.760.9541015625,-0.366943359375,0.002197265625,1.51824951172,0.67138671875,-0.572204589844
1534595839.770.952392578125,-0.3662109375,-0.00341796875,1.55639648438,0.442504882812,-0.556945800781
1534595839.770.952392578125,-0.36865234375,-0.0048828125,1.46484375,0.343322753906,-0.335693359375
1534595839.770.95458984375,-0.366455078125,-0.005615234375,1.46484375,0.717163085938,-0.54931640625
1534595839.770.951416015625,-0.36767578125,-0.005126953125,1.51062011719,0.747680664062,-0.534057617188
1534595839.770.952392578125,-0.368896484375,-0.001953125,1.57928466797,0.320434570312,-0.54931640625
1534595839.770.956787109375,-0.36767578125,-0.00927734375,2.04467773438,0.42724609375,-0.381469726562
1534595839.770.957763671875,-0.3701171875,-0.00439453125,1.81579589844,0.617980957031,-0.48828125
1534595839.780.9560546875,-0.368408203125,0.0009765625,1.54876708984,0.595092773438,-0.389099121094
1534595839.780.9560546875,-0.373291015625,0.00341796875,1.28173828125,0.663757324219,-0.3662109375
1534595839.780.95556640625,-0.371337890625,0.0,1.24359130859,0.579833984375,-0.457763671875
1534595839.780.95703125,-0.36767578125,-0.00390625,1.54876708984,0.885009765625,-0.381469726562
1534595839.780.953369140625,-0.368408203125,-0.006591796875,1.56402587891,0.869750976562,-0.457763671875
1534595839.780.952880859375,-0.36865234375,-0.001953125,1.55639648438,0.686645507812,-0.236511230469
1534595839.780.95068359375,-0.368896484375,-0.00048828125,1.3427734375,0.480651855469,-0.282287597656
1534595839.780.952880859375,-0.367431640625,-0.004638671875,1.55639648438,0.694274902344,-0.343322753906
1534595839.790.95458984375,-0.369140625,0.001220703125,1.62506103516,0.91552734375,-0.595092773438
1534595839.790.956298828125,-0.36962890625,0.0,1.43432617188,0.747680664062,-0.6103515625
1534595839.790.958984375,-0.37060546875,-0.00048828125,1.39617919922,0.892639160156,-0.534057617188
1534595839.790.9560546875,-0.3701171875,-0.001708984375,1.43432617188,0.801086425781,-0.457763671875
1534595839.790.954345703125,-0.3701171875,-0.0078125,1.42669677734,0.885009765625,-0.48828125
1534595839.790.950439453125,-0.369873046875,-0.00244140625,1.44195556641,0.480651855469,-0.518798828125
1534595839.790.954833984375,-0.368408203125,-0.002685546875,1.44195556641,0.762939453125,-0.572204589844
1534595839.790.95751953125,-0.369873046875,-0.00048828125,1.41143798828,0.808715820312,-0.617980957031
1534595839.790.955322265625,-0.368896484375,0.000732421875,1.45721435547,0.831604003906,-0.495910644531
1534595839.80.952392578125,-0.3662109375,0.005859375,1.45721435547,1.02233886719,-0.656127929688
1534595839.80.953125,-0.363037109375,0.0029296875,1.41143798828,0.717163085938,-0.633239746094
1534595839.80.9541015625,-0.3642578125,-0.001953125,1.38854980469,0.503540039062,-0.526428222656
1534595839.80.953125,-0.3701171875,-0.003662109375,1.40380859375,0.625610351562,-0.396728515625
1534595839.80.95263671875,-0.368896484375,-0.004150390625,1.60980224609,0.862121582031,-0.457763671875
1534595839.80.953369140625,-0.3662109375,0.0009765625,1.67083740234,0.6103515625,-0.663757324219
1534595839.80.9560546875,-0.367919921875,0.001708984375,1.56402587891,0.526428222656,-0.762939453125
1534595839.80.954833984375,-0.368408203125,0.002685546875,1.48010253906,0.740051269531,-0.709533691406
1534595839.810.95556640625,-0.36767578125,0.00048828125,1.51062011719,0.54931640625,-0.564575195312
1534595839.810.955810546875,-0.367431640625,0.00048828125,1.56402587891,0.556945800781,-0.67138671875
1534595839.810.9521484375,-0.3642578125,-0.003662109375,1.37329101562,0.79345703125,-0.640869140625
1534595839.810.95458984375,-0.36865234375,-0.001953125,1.39617919922,0.709533691406,-0.48828125
1534595839.810.9541015625,-0.368896484375,-0.001220703125,1.57928466797,0.54931640625,-0.228881835938
1534595839.810.95361328125,-0.369140625,-0.003173828125,1.65557861328,0.572204589844,-0.297546386719
1534595839.810.953369140625,-0.368896484375,-0.006591796875,1.64031982422,0.747680664062,-0.434875488281
1534595839.810.954345703125,-0.36865234375,-0.00244140625,1.71661376953,0.740051269531,-0.633239746094
1534595839.820.954345703125,-0.36865234375,0.002685546875,1.61743164062,0.816345214844,-0.526428222656
1534595839.820.954345703125,-0.36767578125,0.0029296875,1.51062011719,0.801086425781,-0.30517578125
1534595839.820.953857421875,-0.368408203125,0.005126953125,1.36566162109,0.564575195312,-0.236511230469
1534595839.820.9541015625,-0.370361328125,0.003173828125,1.52587890625,0.457763671875,-0.30517578125
1534595839.820.95166015625,-0.367431640625,-0.0029296875,1.59454345703,0.350952148438,-0.373840332031
1534595839.820.953369140625,-0.36376953125,0.0,1.73950195312,0.617980957031,-0.274658203125
1534595839.820.9541015625,-0.363525390625,0.001220703125,1.51824951172,0.480651855469,-0.236511230469
1534595839.820.953125,-0.36474609375,-0.0009765625,1.51062011719,0.511169433594,-0.0228881835938
1534595839.820.953369140625,-0.3671875,-0.00341796875,1.38092041016,0.297546386719,0.160217285156
1534595839.830.951904296875,-0.366943359375,-0.003662109375,1.60980224609,0.129699707031,-0.0381469726562
1534595839.830.955810546875,-0.3662109375,-0.00390625,1.74713134766,0.0,-0.0457763671875
1534595839.830.95849609375,-0.3662109375,-0.000732421875,1.65557861328,0.442504882812,-0.0762939453125
1534595839.830.955078125,-0.37158203125,-0.000244140625,1.54876708984,0.541687011719,-0.0534057617188
1534595839.830.953857421875,-0.369140625,-0.002197265625,1.55639648438,0.320434570312,-0.205993652344
1534595839.830.95361328125,-0.370849609375,-0.000732421875,1.72424316406,0.236511230469,-0.274658203125
1534595839.830.953125,-0.37060546875,-0.001708984375,1.77764892578,0.267028808594,-0.129699707031
1534595839.840.950927734375,-0.369140625,-0.005126953125,1.69372558594,0.030517578125,-0.114440917969
1534595839.840.951416015625,-0.3662109375,-0.0048828125,1.72424316406,0.091552734375,-0.289916992188
1534595839.840.953125,-0.369140625,-0.003662109375,1.38092041016,0.091552734375,-0.205993652344
1534595839.840.953125,-0.369384765625,0.0,1.38854980469,0.228881835938,0.0381469726562
1534595839.840.9541015625,-0.37060546875,-0.00048828125,1.68609619141,0.0228881835938,-0.213623046875
1534595839.840.9560546875,-0.3701171875,-0.0029296875,1.55639648438,0.0152587890625,-0.495910644531
1534595839.840.957275390625,-0.37060546875,-0.00244140625,1.40380859375,0.205993652344,-0.312805175781
1534595839.840.95166015625,-0.36767578125,0.0048828125,1.60980224609,0.42724609375,-0.190734863281
1534595839.840.9521484375,-0.3671875,0.00830078125,1.49536132812,0.48828125,-0.205993652344
1534595839.850.95361328125,-0.368408203125,0.01123046875,1.41906738281,0.267028808594,-0.335693359375
1534595839.850.95361328125,-0.37060546875,0.005615234375,1.38854980469,0.0381469726562,-0.30517578125
1534595839.850.953369140625,-0.366943359375,-0.002685546875,1.42669677734,0.221252441406,-0.0534057617188
1534595839.850.956787109375,-0.3662109375,0.001220703125,1.61743164062,0.228881835938,-0.00762939453125
1534595839.850.956298828125,-0.365478515625,-0.00439453125,1.5869140625,0.274658203125,-0.213623046875
1534595839.850.953125,-0.36767578125,-0.001220703125,1.38854980469,0.526428222656,-0.411987304688
1534595839.850.952880859375,-0.367919921875,0.001953125,1.52587890625,0.701904296875,-0.320434570312
1534595839.850.953125,-0.369140625,0.001708984375,1.51062011719,0.900268554688,-0.350952148438
1534595839.860.954345703125,-0.36474609375,-0.00830078125,1.54876708984,0.679016113281,-0.404357910156
1534595839.860.955810546875,-0.365966796875,-0.002685546875,1.48773193359,0.778198242188,-0.419616699219
1534595839.860.95166015625,-0.3662109375,0.001220703125,1.59454345703,0.877380371094,-0.434875488281
1534595839.860.95166015625,-0.36669921875,0.0009765625,1.54113769531,0.91552734375,-0.503540039062
1534595839.860.952392578125,-0.365234375,0.001220703125,1.51062011719,0.686645507812,-0.381469726562
1534595839.870.9541015625,-0.369873046875,0.002197265625,1.53350830078,0.679016113281,-0.335693359375
1534595839.870.951904296875,-0.36572265625,-0.00390625,1.40380859375,0.709533691406,-0.541687011719
1534595839.880.951904296875,-0.367919921875,0.000732421875,1.67846679688,0.350952148438,-0.411987304688
1534595839.880.948486328125,-0.368896484375,-0.003173828125,1.59454345703,0.480651855469,-0.30517578125
1534595839.880.953369140625,-0.3671875,-0.005615234375,1.51824951172,0.633239746094,-0.42724609375
1534595839.880.95556640625,-0.3681640625,-0.004150390625,1.31988525391,0.640869140625,-0.602722167969
1534595839.880.9521484375,-0.3681640625,-0.002685546875,1.24359130859,0.404357910156,-0.526428222656
1534595839.880.951904296875,-0.36669921875,0.003173828125,1.45721435547,0.511169433594,-0.389099121094
1534595839.890.951416015625,-0.366943359375,-0.003662109375,1.35803222656,0.587463378906,-0.48828125
1534595839.890.953125,-0.37060546875,0.0,1.57928466797,0.648498535156,-0.442504882812
1534595839.890.951904296875,-0.37060546875,0.001220703125,1.38854980469,0.633239746094,-0.3662109375
1534595839.90.94970703125,-0.366455078125,-0.00390625,1.37329101562,0.67138671875,-0.396728515625
1534595839.90.9501953125,-0.370849609375,-0.003173828125,1.57928466797,0.648498535156,-0.450134277344
1534595839.90.949462890625,-0.36865234375,-0.000732421875,1.57165527344,0.54931640625,-0.373840332031
1534595839.90.951904296875,-0.369140625,-0.0078125,1.47247314453,0.602722167969,-0.633239746094
1534595839.910.95166015625,-0.365966796875,-0.00341796875,1.47247314453,0.556945800781,-0.724792480469
1534595839.910.956298828125,-0.369140625,-0.0048828125,1.64794921875,0.381469726562,-0.175476074219
1534595839.920.952392578125,-0.36767578125,-0.0009765625,1.39617919922,0.602722167969,-0.18310546875
1534595839.920.949951171875,-0.36865234375,0.00048828125,1.3427734375,0.595092773438,-0.259399414062
1534595839.920.952392578125,-0.369384765625,-0.001953125,1.5869140625,0.694274902344,-0.244140625
1534595839.920.955078125,-0.369873046875,-0.004150390625,1.61743164062,0.625610351562,-0.213623046875
1534595839.920.95166015625,-0.37060546875,-0.00146484375,1.60217285156,0.442504882812,-0.350952148438
1534595839.920.9501953125,-0.3681640625,0.00341796875,1.90734863281,0.595092773438,-0.450134277344
1534595839.920.955078125,-0.3662109375,0.005126953125,1.59454345703,0.450134277344,-0.419616699219
1534595839.920.952392578125,-0.365966796875,0.00341796875,1.45721435547,0.373840332031,-0.297546386719
1534595839.930.95068359375,-0.3671875,-0.00048828125,1.55639648438,0.503540039062,-0.282287597656
1534595839.930.95263671875,-0.371337890625,-0.00390625,1.78527832031,0.640869140625,-0.48828125
1534595839.930.953857421875,-0.370361328125,-0.0029296875,1.67846679688,0.518798828125,-0.442504882812
1534595839.930.955078125,-0.36962890625,-0.0029296875,1.44958496094,0.450134277344,-0.358581542969
1534595839.930.953125,-0.369384765625,-0.000732421875,1.52587890625,0.381469726562,-0.389099121094
1534595839.930.953125,-0.365966796875,-0.001220703125,1.51062011719,0.411987304688,-0.335693359375
1534595839.930.95751953125,-0.365478515625,0.0009765625,1.51062011719,0.42724609375,-0.236511230469
1534595839.930.9580078125,-0.36572265625,0.003173828125,1.51062011719,0.480651855469,-0.259399414062
1534595839.930.953369140625,-0.365966796875,0.000244140625,1.39617919922,0.579833984375,-0.564575195312
1534595839.940.950927734375,-0.366943359375,-0.001220703125,1.68609619141,0.587463378906,-0.556945800781
1534595839.940.95166015625,-0.36572265625,0.00341796875,1.62506103516,0.473022460938,-0.411987304688
1534595839.940.95263671875,-0.367919921875,0.0,1.61743164062,0.350952148438,-0.434875488281
1534595839.940.954833984375,-0.367919921875,-0.00146484375,1.5869140625,0.274658203125,-0.389099121094
1534595839.940.953125,-0.364501953125,0.002685546875,1.49536132812,0.450134277344,-0.473022460938
1534595839.940.948974609375,-0.364501953125,0.0,1.36566162109,0.457763671875,-0.587463378906
1534595839.940.948974609375,-0.3671875,-0.000244140625,1.72424316406,0.579833984375,-0.320434570312
1534595839.940.955078125,-0.371826171875,-0.002197265625,1.72424316406,0.503540039062,-0.328063964844
1534595839.940.9609375,-0.369384765625,0.000244140625,1.52587890625,0.595092773438,-0.434875488281
1534595839.950.957275390625,-0.368896484375,-0.001220703125,1.57928466797,0.48828125,-0.572204589844
1534595839.950.951171875,-0.36962890625,-0.001953125,1.67083740234,0.442504882812,-0.648498535156
1534595839.950.953857421875,-0.36962890625,0.000244140625,1.76239013672,0.679016113281,-0.511169433594
1534595839.950.956298828125,-0.36865234375,-0.0029296875,1.50299072266,0.686645507812,-0.442504882812
1534595839.950.9541015625,-0.36767578125,-0.000244140625,1.43432617188,0.839233398438,-0.534057617188
1534595839.950.951904296875,-0.370849609375,0.00244140625,1.70135498047,0.823974609375,-0.6103515625
1534595839.950.952880859375,-0.373291015625,-0.0009765625,1.73187255859,0.518798828125,-0.518798828125
1534595839.950.95263671875,-0.3720703125,0.00146484375,1.67083740234,0.54931640625,-0.518798828125
1534595839.950.954345703125,-0.3662109375,-0.001220703125,1.60980224609,0.541687011719,-0.625610351562
1534595839.960.95458984375,-0.368408203125,0.00244140625,1.84631347656,0.732421875,-0.396728515625
1534595839.960.95458984375,-0.368896484375,0.003173828125,1.74713134766,0.770568847656,-0.541687011719
1534595839.960.9560546875,-0.367431640625,-0.0029296875,1.55639648438,0.907897949219,-0.602722167969
1534595839.960.9541015625,-0.36572265625,-0.00439453125,1.49536132812,0.709533691406,-0.457763671875
1534595839.960.954345703125,-0.36767578125,-0.00146484375,1.3427734375,0.732421875,-0.419616699219
1534595839.960.95556640625,-0.369384765625,-0.003173828125,1.43432617188,0.785827636719,-0.48828125
1534595839.960.953857421875,-0.36962890625,-0.006103515625,1.41143798828,0.694274902344,-0.373840332031
1534595839.960.95263671875,-0.367431640625,-0.00341796875,1.50299072266,0.633239746094,-0.259399414062
1534595839.960.951171875,-0.3642578125,-0.002685546875,1.57928466797,0.747680664062,-0.48828125
1534595839.960.952880859375,-0.364013671875,-0.00537109375,1.42669677734,0.785827636719,-0.67138671875
1534595839.970.953125,-0.364990234375,-0.0078125,1.32751464844,0.617980957031,-0.534057617188
1534595839.970.95263671875,-0.3662109375,-0.008544921875,1.55639648438,0.442504882812,-0.389099121094
1534595839.970.95703125,-0.366455078125,-0.004150390625,1.5869140625,0.480651855469,-0.18310546875
1534595839.970.95751953125,-0.366943359375,-0.002197265625,1.42669677734,0.579833984375,-0.411987304688
1534595839.970.953369140625,-0.365478515625,0.0,1.38854980469,0.747680664062,-0.495910644531
1534595839.970.953369140625,-0.366455078125,-0.000732421875,1.57165527344,0.518798828125,-0.244140625
1534595839.970.954345703125,-0.3662109375,0.00048828125,1.54876708984,0.152587890625,-0.274658203125
1534595839.970.951416015625,-0.364990234375,-0.00244140625,1.54113769531,0.320434570312,-0.450134277344
1534595839.970.95361328125,-0.364990234375,-0.0048828125,1.70135498047,0.518798828125,-0.503540039062
1534595839.970.95703125,-0.367919921875,-0.002685546875,1.57928466797,0.48828125,-0.534057617188
1534595839.980.954345703125,-0.370849609375,-0.004638671875,1.51824951172,0.6103515625,-0.6103515625
1534595839.980.951904296875,-0.368408203125,-0.00439453125,1.60980224609,0.473022460938,-0.511169433594
1534595839.980.953125,-0.365966796875,-0.00634765625,1.53350830078,0.434875488281,-0.480651855469
1534595839.980.95556640625,-0.36376953125,-0.005615234375,1.51824951172,0.457763671875,-0.450134277344
1534595839.980.956787109375,-0.36572265625,-0.0029296875,1.47247314453,0.564575195312,-0.717163085938
1534595839.980.95849609375,-0.364990234375,-0.00732421875,1.62506103516,0.42724609375,-0.289916992188
1534595839.980.955322265625,-0.365234375,-0.0078125,1.64031982422,0.404357910156,0.0152587890625
1534595839.980.95068359375,-0.367919921875,-0.00390625,1.51824951172,0.755310058594,-0.213623046875
1534595839.980.952880859375,-0.364990234375,0.00146484375,1.3427734375,0.762939453125,-0.442504882812
1534595839.980.952392578125,-0.367431640625,0.004150390625,1.3427734375,0.717163085938,-0.373840332031
1534595839.990.953125,-0.3671875,0.000732421875,1.42669677734,0.694274902344,-0.42724609375
1534595839.990.9521484375,-0.36865234375,-0.003173828125,1.52587890625,0.801086425781,-0.373840332031
1534595839.990.952392578125,-0.366943359375,-0.000244140625,1.5869140625,0.640869140625,-0.381469726562
1534595839.990.953857421875,-0.36181640625,-0.000732421875,1.50299072266,0.480651855469,-0.42724609375
1534595839.990.953857421875,-0.36181640625,-0.000732421875,1.44195556641,0.396728515625,-0.579833984375
1534595839.990.954833984375,-0.365966796875,-0.001220703125,1.50299072266,0.411987304688,-0.656127929688
1534595839.990.95654296875,-0.365478515625,-0.0029296875,1.52587890625,0.42724609375,-0.457763671875
1534595839.990.95556640625,-0.367431640625,-0.000732421875,1.66320800781,0.640869140625,-0.373840332031
1534595839.990.9541015625,-0.37060546875,-0.0029296875,1.71661376953,0.67138671875,-0.404357910156
1534595839.990.953857421875,-0.368896484375,-0.00146484375,1.74713134766,0.579833984375,-0.411987304688
1534595840.00.955078125,-0.369140625,0.00146484375,1.62506103516,0.473022460938,-0.42724609375
1534595840.00.955078125,-0.37060546875,-0.00439453125,1.44958496094,0.526428222656,-0.404357910156
1534595840.00.9521484375,-0.368408203125,-0.004150390625,1.53350830078,0.312805175781,-0.297546386719
1534595840.00.953369140625,-0.368408203125,-0.004638671875,1.67846679688,0.473022460938,-0.534057617188
1534595840.00.9560546875,-0.3701171875,-0.011474609375,1.64031982422,0.595092773438,-0.511169433594
1534595840.00.955810546875,-0.370849609375,-0.008544921875,1.65557861328,0.625610351562,-0.511169433594
1534595840.00.952392578125,-0.371826171875,-0.00341796875,1.79290771484,0.701904296875,-0.328063964844
1534595840.00.953369140625,-0.372314453125,-0.00927734375,1.77001953125,0.740051269531,-0.42724609375
1534595840.00.957275390625,-0.371826171875,-0.0078125,1.60980224609,0.640869140625,-0.3662109375
1534595840.010.953857421875,-0.369873046875,-0.00146484375,1.47247314453,0.602722167969,-0.434875488281
1534595840.010.9521484375,-0.369140625,0.0,1.49536132812,0.450134277344,-0.297546386719
1534595840.010.952880859375,-0.37158203125,0.001220703125,1.54113769531,0.602722167969,-0.205993652344
1534595840.010.95263671875,-0.3701171875,0.0009765625,1.44958496094,0.717163085938,-0.205993652344
1534595840.010.95263671875,-0.366943359375,-0.00048828125,1.41906738281,0.602722167969,-0.450134277344
1534595840.010.95166015625,-0.3671875,-0.002685546875,1.47247314453,0.411987304688,-0.503540039062
1534595840.010.953125,-0.366455078125,-0.004150390625,1.35803222656,0.518798828125,-0.42724609375
1534595840.010.953857421875,-0.3701171875,-0.00732421875,1.50299072266,0.54931640625,-0.465393066406
1534595840.010.9521484375,-0.37255859375,-0.01025390625,1.52587890625,0.556945800781,-0.434875488281
1534595840.010.94970703125,-0.373046875,-0.00927734375,1.78527832031,0.587463378906,-0.534057617188
1534595840.020.95263671875,-0.373779296875,-0.00732421875,1.75476074219,0.579833984375,-0.518798828125
1534595840.020.9560546875,-0.367919921875,-0.0029296875,1.50299072266,0.724792480469,-0.129699707031
1534595840.020.952880859375,-0.3671875,-0.000244140625,1.40380859375,0.54931640625,-0.236511230469
1534595840.030.955078125,-0.37109375,-0.0009765625,1.70135498047,0.709533691406,-0.289916992188
1534595840.030.9541015625,-0.3681640625,-0.00048828125,1.54876708984,0.556945800781,-0.419616699219
1534595840.030.9521484375,-0.367431640625,-0.002685546875,1.51824951172,0.694274902344,-0.572204589844
1534595840.030.953857421875,-0.36669921875,0.00146484375,1.64794921875,0.579833984375,-0.419616699219
1534595840.030.95361328125,-0.369140625,-0.000244140625,1.70135498047,0.640869140625,-0.564575195312
1534595840.030.951904296875,-0.3662109375,0.00341796875,1.60217285156,0.595092773438,-0.396728515625
1534595840.030.954833984375,-0.3720703125,-0.008544921875,1.73187255859,0.564575195312,-0.205993652344
1534595840.040.957763671875,-0.37060546875,-0.008056640625,1.71661376953,0.54931640625,-0.30517578125
1534595840.040.9560546875,-0.364990234375,-0.005615234375,1.54113769531,0.42724609375,-0.625610351562
1534595840.040.955810546875,-0.36669921875,0.00146484375,1.40380859375,0.396728515625,-0.450134277344
1534595840.040.9580078125,-0.3642578125,0.005859375,1.50299072266,0.6103515625,-0.465393066406
1534595840.040.957275390625,-0.366455078125,0.005615234375,1.67846679688,0.686645507812,-0.389099121094
1534595840.040.95556640625,-0.369873046875,0.0,1.59454345703,0.473022460938,-0.274658203125
1534595840.050.954345703125,-0.36865234375,-0.005859375,1.31225585938,0.289916992188,-0.396728515625
1534595840.050.95654296875,-0.3681640625,-0.00048828125,1.73950195312,1.00708007812,-0.175476074219
1534595840.050.956787109375,-0.3681640625,0.00146484375,1.49536132812,0.556945800781,-0.152587890625
1534595840.050.95361328125,-0.366943359375,0.000732421875,1.37329101562,0.381469726562,-0.213623046875
1534595840.060.953125,-0.367919921875,0.00146484375,1.76239013672,0.457763671875,-0.396728515625
1534595840.060.953369140625,-0.36767578125,-0.00244140625,1.39617919922,0.656127929688,-0.328063964844
1534595840.060.954345703125,-0.367431640625,-0.001953125,1.33514404297,0.846862792969,-0.419616699219
1534595840.060.953369140625,-0.367919921875,-0.00244140625,1.49536132812,0.846862792969,-0.663757324219
1534595840.060.9501953125,-0.369140625,-0.001220703125,1.72424316406,0.572204589844,-0.541687011719
1534595840.060.9541015625,-0.370361328125,-0.00341796875,1.54113769531,0.503540039062,-0.404357910156
1534595840.060.958251953125,-0.369384765625,-0.000244140625,1.47247314453,0.480651855469,-0.320434570312
1534595840.070.95458984375,-0.370361328125,0.000244140625,1.42669677734,0.312805175781,-0.297546386719
1534595840.070.953369140625,-0.37109375,-0.000732421875,1.48010253906,0.511169433594,-0.480651855469
1534595840.070.954345703125,-0.3671875,-0.00341796875,1.38854980469,0.564575195312,-0.442504882812
1534595840.070.953857421875,-0.36767578125,-0.001708984375,1.50299072266,0.6103515625,-0.518798828125
1534595840.070.9541015625,-0.36865234375,-0.001708984375,1.51062011719,0.732421875,-0.534057617188
1534595840.070.952880859375,-0.369873046875,0.0048828125,1.40380859375,0.831604003906,-0.694274902344
1534595840.080.95263671875,-0.366455078125,0.004150390625,1.57165527344,0.633239746094,-0.595092773438
1534595840.080.953369140625,-0.368408203125,-0.005859375,1.72424316406,0.999450683594,-0.434875488281
1534595840.080.953369140625,-0.3671875,0.001708984375,1.67083740234,1.02233886719,-0.42724609375
1534595840.080.952392578125,-0.3671875,0.00146484375,1.51824951172,0.701904296875,-0.717163085938
1534595840.080.952392578125,-0.367431640625,0.003662109375,1.45721435547,0.762939453125,-0.404357910156
1534595840.080.955322265625,-0.3681640625,0.006103515625,1.51824951172,0.640869140625,-0.419616699219
1534595840.080.95751953125,-0.3671875,0.0009765625,1.63269042969,0.778198242188,-0.518798828125
1534595840.080.95361328125,-0.367431640625,-0.001220703125,1.49536132812,0.503540039062,-0.442504882812
1534595840.080.952392578125,-0.367919921875,0.00048828125,1.44195556641,0.54931640625,-0.343322753906
1534595840.080.952392578125,-0.368408203125,0.00146484375,1.44958496094,0.625610351562,-0.343322753906
1534595840.090.952392578125,-0.3681640625,0.00048828125,1.41143798828,0.595092773438,-0.457763671875
1534595840.090.955810546875,-0.365966796875,0.000732421875,1.64031982422,0.3662109375,-0.297546386719
1534595840.090.955322265625,-0.3662109375,0.00244140625,1.73950195312,0.534057617188,-0.396728515625
1534595840.090.954345703125,-0.3681640625,0.00146484375,1.66320800781,0.656127929688,-0.473022460938
1534595840.090.95263671875,-0.37109375,-0.001708984375,1.51824951172,0.526428222656,-0.396728515625
1534595840.090.950927734375,-0.3701171875,-0.002685546875,1.67083740234,0.343322753906,-0.450134277344
1534595840.090.95361328125,-0.37060546875,0.001220703125,1.5869140625,0.213623046875,-0.48828125
1534595840.090.95361328125,-0.372802734375,-0.001953125,1.49536132812,0.442504882812,-0.434875488281
1534595840.090.95263671875,-0.3701171875,-0.00341796875,1.44958496094,0.465393066406,-0.18310546875
1534595840.10.952392578125,-0.365966796875,0.00390625,1.47247314453,0.541687011719,-0.274658203125
1534595840.10.952880859375,-0.3681640625,0.00537109375,1.64031982422,0.48828125,-0.3662109375
1534595840.10.9560546875,-0.370849609375,0.00390625,1.64794921875,0.213623046875,-0.442504882812
1534595840.10.956298828125,-0.369140625,0.000244140625,1.57928466797,0.389099121094,-0.259399414062
1534595840.10.954345703125,-0.368408203125,-0.004150390625,1.61743164062,0.534057617188,-0.221252441406
1534595840.10.955810546875,-0.3681640625,-0.001708984375,1.54876708984,0.526428222656,-0.274658203125
1534595840.10.9541015625,-0.36767578125,-0.00146484375,1.3427734375,0.534057617188,-0.30517578125
1534595840.10.951904296875,-0.365478515625,-0.005859375,1.44195556641,0.289916992188,-0.335693359375
1534595840.10.95556640625,-0.36474609375,-0.00439453125,1.50299072266,0.480651855469,-0.480651855469
1534595840.10.955078125,-0.366455078125,0.001708984375,1.54113769531,0.724792480469,-0.30517578125
1534595840.110.95068359375,-0.365234375,-0.0029296875,1.48773193359,0.823974609375,-0.282287597656
1534595840.110.955078125,-0.3662109375,-0.00830078125,1.38854980469,0.663757324219,-0.30517578125
1534595840.110.95556640625,-0.366943359375,-0.0048828125,1.39617919922,0.6103515625,-0.1220703125
1534595840.110.954833984375,-0.367431640625,0.0009765625,1.5869140625,0.404357910156,-0.297546386719
1534595840.110.954833984375,-0.36669921875,0.001220703125,1.52587890625,0.518798828125,-0.328063964844
1534595840.110.953857421875,-0.365966796875,-0.00341796875,1.220703125,0.617980957031,-0.297546386719
1534595840.110.954345703125,-0.36669921875,-0.001953125,1.220703125,0.640869140625,-0.328063964844
1534595840.110.953857421875,-0.367919921875,0.000732421875,1.48010253906,0.633239746094,-0.00762939453125
1534595840.110.95458984375,-0.3701171875,0.00146484375,1.61743164062,0.686645507812,0.0991821289062
1534595840.110.9521484375,-0.36962890625,-0.001953125,1.54113769531,0.404357910156,0.0457763671875
1534595840.120.95068359375,-0.3642578125,-0.00146484375,1.47247314453,0.289916992188,-0.1220703125
1534595840.120.955810546875,-0.366943359375,0.000244140625,1.48010253906,0.434875488281,-0.030517578125
1534595840.120.9541015625,-0.3720703125,-0.00244140625,1.48010253906,0.419616699219,-0.0534057617188
1534595840.120.951171875,-0.366943359375,-0.003662109375,1.44195556641,0.48828125,-0.0991821289062
1534595840.120.95458984375,-0.3671875,-0.00439453125,1.54113769531,0.617980957031,-0.175476074219
1534595840.120.95263671875,-0.369140625,-0.00439453125,1.3427734375,0.648498535156,-0.244140625
1534595840.120.951904296875,-0.36962890625,-0.00390625,1.21307373047,0.389099121094,-0.190734863281
1534595840.120.95458984375,-0.36865234375,-0.0048828125,1.21307373047,0.48828125,-0.160217285156
1534595840.120.95458984375,-0.36865234375,-0.0048828125,1.28173828125,0.48828125,-0.106811523438
1534595840.120.955322265625,-0.365478515625,-0.000732421875,1.44195556641,0.3662109375,-0.0152587890625
1534595840.130.95654296875,-0.36376953125,0.00048828125,1.52587890625,0.343322753906,-0.274658203125
1534595840.130.955322265625,-0.369873046875,0.001708984375,1.44195556641,0.419616699219,-0.373840332031
1534595840.130.95166015625,-0.369140625,0.001220703125,1.29699707031,0.190734863281,-0.205993652344
1534595840.130.95166015625,-0.369140625,0.001220703125,1.44958496094,0.259399414062,-0.114440917969
1534595840.130.949951171875,-0.36865234375,0.001220703125,1.51062011719,0.404357910156,-0.114440917969
1534595840.130.952392578125,-0.3701171875,0.001953125,1.54113769531,0.465393066406,-0.389099121094
1534595840.130.952392578125,-0.375,-0.000244140625,1.41143798828,0.350952148438,-0.328063964844
1534595840.130.953857421875,-0.372314453125,-0.003662109375,1.52587890625,0.198364257812,-0.373840332031
1534595840.130.95751953125,-0.368896484375,-0.004150390625,1.47247314453,0.404357910156,-0.274658203125
1534595840.130.955810546875,-0.36572265625,-0.000732421875,1.54113769531,0.579833984375,-0.30517578125
1534595840.140.952880859375,-0.369140625,-0.00244140625,1.65557861328,0.602722167969,-0.236511230469
1534595840.140.952880859375,-0.369140625,-0.00244140625,1.56402587891,0.411987304688,-0.213623046875
1534595840.140.95458984375,-0.3701171875,0.001953125,1.46484375,0.411987304688,-0.244140625
1534595840.140.9560546875,-0.366455078125,-0.00244140625,1.48773193359,0.541687011719,-0.389099121094
1534595840.140.95361328125,-0.3681640625,-0.001708984375,1.57165527344,0.572204589844,-0.343322753906
1534595840.140.951904296875,-0.370849609375,-0.000244140625,1.59454345703,0.534057617188,-0.297546386719
1534595840.140.9541015625,-0.368896484375,0.0,1.52587890625,0.556945800781,-0.274658203125
1534595840.140.951171875,-0.36669921875,0.0029296875,1.52587890625,0.404357910156,-0.129699707031
1534595840.140.957763671875,-0.364990234375,0.00244140625,1.52587890625,0.473022460938,-0.389099121094
1534595840.140.95703125,-0.367431640625,0.001953125,1.42669677734,0.663757324219,-0.457763671875
1534595840.150.95654296875,-0.367431640625,0.000244140625,1.43432617188,0.694274902344,-0.595092773438
1534595840.150.95703125,-0.36474609375,0.001220703125,1.75476074219,0.617980957031,-0.473022460938
1534595840.150.954833984375,-0.36572265625,-0.003173828125,1.64031982422,0.633239746094,-0.6103515625
1534595840.150.954345703125,-0.3642578125,-0.0048828125,1.38092041016,0.747680664062,-0.54931640625
1534595840.150.9541015625,-0.365966796875,-0.001953125,1.36566162109,0.907897949219,-0.518798828125
1534595840.150.954833984375,-0.36962890625,-0.00244140625,1.38854980469,1.04522705078,-0.6103515625
1534595840.150.953125,-0.369140625,-0.004638671875,1.57165527344,0.961303710938,-0.709533691406
1534595840.150.949462890625,-0.368896484375,-0.004638671875,1.67083740234,0.999450683594,-0.67138671875
1534595840.150.95166015625,-0.36865234375,-0.0009765625,1.66320800781,0.740051269531,-0.617980957031
1534595840.160.95166015625,-0.36669921875,-0.00244140625,1.62506103516,0.442504882812,-0.602722167969
1534595840.160.953369140625,-0.3662109375,-0.0048828125,1.73950195312,0.442504882812,-0.556945800781
1534595840.160.95703125,-0.3671875,-0.00244140625,1.69372558594,0.602722167969,-0.389099121094
1534595840.160.9580078125,-0.368896484375,0.00244140625,1.54113769531,0.808715820312,-0.457763671875
1534595840.160.958984375,-0.370849609375,0.003173828125,1.44958496094,0.648498535156,-0.320434570312
1534595840.160.957275390625,-0.3701171875,-0.000732421875,1.33514404297,0.556945800781,-0.343322753906
1534595840.160.9541015625,-0.36767578125,-0.00341796875,1.31988525391,0.709533691406,-0.350952148438
1534595840.160.95263671875,-0.368896484375,-0.004638671875,1.51824951172,0.694274902344,-0.434875488281
1534595840.160.955322265625,-0.372314453125,-0.00390625,1.67846679688,0.595092773438,-0.556945800781
1534595840.160.954345703125,-0.3701171875,-0.002197265625,1.54113769531,0.389099121094,-0.42724609375
1534595840.170.94970703125,-0.366455078125,-0.001220703125,1.41143798828,0.328063964844,-0.335693359375
1534595840.170.951904296875,-0.36474609375,-0.0009765625,1.65557861328,0.617980957031,-0.381469726562
1534595840.170.956298828125,-0.3671875,-0.00146484375,1.73950195312,0.785827636719,-0.526428222656
1534595840.170.955078125,-0.370361328125,-0.000244140625,1.49536132812,0.48828125,-0.564575195312
1534595840.170.951904296875,-0.369140625,0.00048828125,1.0986328125,0.534057617188,-0.709533691406
1534595840.170.951904296875,-0.367919921875,0.003662109375,1.22833251953,0.656127929688,-0.656127929688
1534595840.170.95166015625,-0.3671875,0.001220703125,1.38854980469,0.930786132812,-0.747680664062
1534595840.170.95458984375,-0.36669921875,-0.00634765625,1.42669677734,0.823974609375,-0.724792480469
1534595840.170.955078125,-0.369140625,-0.005126953125,1.54876708984,0.54931640625,-0.587463378906
1534595840.170.95166015625,-0.370361328125,-0.0009765625,1.42669677734,0.350952148438,-0.54931640625
1534595840.180.94970703125,-0.367431640625,0.00048828125,1.26647949219,0.267028808594,-0.495910644531
1534595840.180.949462890625,-0.36572265625,-0.001708984375,1.42669677734,0.465393066406,-0.473022460938
1534595840.180.953369140625,-0.369384765625,-0.003662109375,1.67846679688,0.54931640625,-0.480651855469
1534595840.180.952880859375,-0.369140625,-0.001220703125,1.61743164062,0.480651855469,-0.526428222656
1534595840.190.95263671875,-0.37158203125,-0.00146484375,1.68609619141,0.541687011719,-0.244140625
1534595840.190.952880859375,-0.368896484375,-0.006103515625,1.39617919922,0.892639160156,-0.297546386719
1534595840.190.955078125,-0.367431640625,-0.00048828125,1.38092041016,0.679016113281,-0.297546386719
1534595840.190.954345703125,-0.3671875,-0.002197265625,1.42669677734,0.526428222656,-0.473022460938
1534595840.20.954345703125,-0.3671875,-0.004638671875,1.69372558594,0.640869140625,-0.328063964844
1534595840.20.95703125,-0.371337890625,-0.005126953125,1.57928466797,0.8544921875,-0.42724609375
1534595840.20.9541015625,-0.373046875,-0.001220703125,1.67083740234,0.79345703125,-0.54931640625
1534595840.20.955810546875,-0.371337890625,-0.000244140625,1.67083740234,0.67138671875,-0.541687011719
1534595840.20.9560546875,-0.3681640625,-0.001953125,1.56402587891,0.770568847656,-0.6103515625
1534595840.20.955078125,-0.3681640625,-0.0048828125,1.44195556641,0.648498535156,-0.54931640625
1534595840.210.953857421875,-0.368408203125,-0.00146484375,1.51824951172,0.633239746094,-0.564575195312
1534595840.210.95263671875,-0.3681640625,-0.002685546875,1.44958496094,0.495910644531,-0.450134277344
1534595840.210.95458984375,-0.367919921875,0.00048828125,1.60217285156,0.373840332031,-0.236511230469
1534595840.210.954345703125,-0.36669921875,-0.00439453125,1.57165527344,0.564575195312,-0.320434570312
1534595840.210.95263671875,-0.366455078125,-0.00341796875,1.77001953125,0.480651855469,-0.42724609375
1534595840.210.954833984375,-0.365234375,-0.002685546875,1.46484375,0.473022460938,-0.442504882812
1534595840.210.953125,-0.36767578125,-0.005126953125,1.56402587891,0.3662109375,-0.419616699219
1534595840.220.953857421875,-0.365234375,-0.005615234375,1.5869140625,0.556945800781,-0.328063964844
1534595840.220.950927734375,-0.3662109375,-0.00048828125,1.48010253906,0.404357910156,-0.267028808594
1534595840.220.947998046875,-0.367431640625,0.00244140625,1.24359130859,0.503540039062,-0.190734863281
1534595840.220.954345703125,-0.367431640625,-0.002197265625,1.37329101562,0.457763671875,-0.152587890625
1534595840.220.9541015625,-0.37109375,0.002197265625,1.63269042969,0.442504882812,-0.213623046875
1534595840.230.954345703125,-0.36962890625,-0.007568359375,1.67083740234,0.457763671875,-0.404357910156
1534595840.230.952392578125,-0.370361328125,-0.001953125,1.50299072266,0.457763671875,-0.320434570312
1534595840.230.95458984375,-0.369873046875,0.003173828125,1.96838378906,0.480651855469,-0.381469726562
1534595840.230.95556640625,-0.36865234375,0.003173828125,1.67083740234,0.556945800781,-0.244140625
1534595840.230.955078125,-0.3681640625,-0.004150390625,1.52587890625,0.48828125,-0.137329101562
1534595840.230.9580078125,-0.36767578125,0.00244140625,1.33514404297,0.244140625,-0.411987304688
1534595840.230.955810546875,-0.369873046875,0.000732421875,1.47247314453,0.320434570312,-0.236511230469
1534595840.240.949951171875,-0.373291015625,-0.001953125,1.37329101562,0.701904296875,-0.0381469726562
1534595840.240.9541015625,-0.373291015625,-0.003662109375,1.48773193359,0.473022460938,-0.06103515625
1534595840.240.955078125,-0.37060546875,-0.001220703125,1.51824951172,0.572204589844,-0.129699707031
1534595840.240.953857421875,-0.3671875,-0.00146484375,1.52587890625,0.747680664062,-0.198364257812
1534595840.240.9560546875,-0.369384765625,-0.006103515625,1.57928466797,0.511169433594,-0.106811523438
1534595840.240.95556640625,-0.371337890625,-0.0068359375,1.65557861328,0.343322753906,-0.350952148438
1534595840.240.95703125,-0.3720703125,-0.000244140625,1.51062011719,0.358581542969,-0.320434570312
1534595840.240.958251953125,-0.369384765625,0.005126953125,1.51824951172,0.396728515625,-0.297546386719
1534595840.240.954833984375,-0.367431640625,-0.000244140625,1.52587890625,0.343322753906,-0.411987304688
1534595840.250.953857421875,-0.367919921875,-0.0029296875,1.63269042969,0.274658203125,-0.419616699219
1534595840.250.957275390625,-0.370361328125,-0.003173828125,1.64031982422,0.358581542969,-0.320434570312
1534595840.250.95654296875,-0.367919921875,-0.0029296875,1.57928466797,0.54931640625,-0.267028808594
1534595840.250.95361328125,-0.364990234375,0.000244140625,1.75476074219,0.404357910156,-0.335693359375
1534595840.250.9541015625,-0.366455078125,-0.004150390625,1.96075439453,0.320434570312,-0.373840332031
1534595840.250.954833984375,-0.36572265625,-0.001953125,1.86157226562,0.701904296875,-0.251770019531
1534595840.250.951416015625,-0.364501953125,0.001708984375,1.54876708984,0.816345214844,-0.251770019531
1534595840.250.949462890625,-0.365234375,-0.00146484375,1.41906738281,0.732421875,-0.274658203125
1534595840.250.951416015625,-0.365966796875,0.0,1.44195556641,0.54931640625,-0.312805175781
1534595840.250.95166015625,-0.365234375,0.002197265625,1.61743164062,0.579833984375,-0.289916992188
1534595840.260.95361328125,-0.3642578125,0.0009765625,1.89971923828,0.572204589844,-0.617980957031
1534595840.260.9541015625,-0.366455078125,0.000732421875,1.59454345703,0.656127929688,-0.541687011719
1534595840.260.951904296875,-0.36572265625,0.003662109375,1.28173828125,0.709533691406,-0.526428222656
1534595840.260.950927734375,-0.36474609375,0.000244140625,1.44195556641,0.79345703125,-0.198364257812
1534595840.260.953125,-0.366943359375,-0.004638671875,1.54876708984,0.717163085938,-0.1220703125
1534595840.260.95361328125,-0.369140625,-0.00146484375,1.51062011719,0.6103515625,-0.129699707031
1534595840.260.95166015625,-0.368896484375,-0.000244140625,1.3427734375,0.595092773438,-0.358581542969
1534595840.260.953857421875,-0.370849609375,0.00048828125,1.46484375,0.518798828125,-0.434875488281
1534595840.260.954833984375,-0.37109375,0.002685546875,1.62506103516,0.48828125,-0.1220703125
1534595840.260.95263671875,-0.3671875,0.00244140625,1.51062011719,0.701904296875,-0.267028808594
1534595840.270.953369140625,-0.365966796875,0.000244140625,1.81579589844,0.862121582031,-0.534057617188
1534595840.270.955810546875,-0.36962890625,-0.00390625,1.86157226562,0.8544921875,-0.755310058594
1534595840.270.95166015625,-0.37109375,-0.0078125,1.57928466797,0.595092773438,-0.534057617188
1534595840.270.948974609375,-0.3681640625,-0.006103515625,1.38854980469,0.358581542969,-0.457763671875
1534595840.270.951416015625,-0.36962890625,-0.002685546875,1.38854980469,0.267028808594,-0.335693359375
1534595840.270.952392578125,-0.36865234375,-0.003173828125,1.24359130859,0.244140625,-0.0991821289062
1534595840.270.955078125,-0.363037109375,-0.005859375,1.30462646484,0.221252441406,-0.251770019531
1534595840.270.958251953125,-0.36328125,-0.00439453125,1.38092041016,0.320434570312,-0.320434570312
1534595840.270.955322265625,-0.3681640625,-0.00390625,1.46484375,0.595092773438,-0.42724609375
1534595840.270.95263671875,-0.371826171875,-0.004638671875,1.50299072266,0.633239746094,-0.617980957031
1534595840.280.95068359375,-0.371337890625,-0.004150390625,1.54113769531,0.503540039062,-0.617980957031
1534595840.280.9501953125,-0.36767578125,-0.00927734375,1.66320800781,0.595092773438,-0.419616699219
1534595840.280.955322265625,-0.36865234375,-0.009765625,1.57165527344,0.602722167969,-0.190734863281
1534595840.280.95556640625,-0.37060546875,-0.00634765625,1.44195556641,0.579833984375,-0.30517578125
1534595840.280.953125,-0.3701171875,-0.003173828125,1.41906738281,0.312805175781,-0.465393066406
1534595840.280.955810546875,-0.369384765625,-0.0009765625,1.61743164062,0.335693359375,-0.167846679688
1534595840.280.954345703125,-0.37060546875,0.001708984375,1.80053710938,0.473022460938,-0.091552734375
1534595840.280.954345703125,-0.371826171875,0.003662109375,1.96838378906,0.511169433594,-0.1220703125
1534595840.280.956787109375,-0.37158203125,0.0,1.86920166016,0.495910644531,-0.175476074219
1534595840.280.95556640625,-0.366455078125,-0.00390625,1.60980224609,0.442504882812,-0.297546386719
1534595840.290.954833984375,-0.36669921875,-0.003662109375,1.49536132812,0.480651855469,-0.419616699219
1534595840.290.954345703125,-0.37158203125,-0.003173828125,1.40380859375,0.457763671875,-0.389099121094
1534595840.290.952392578125,-0.371826171875,-0.0048828125,1.46484375,0.595092773438,-0.335693359375
1534595840.290.950439453125,-0.369384765625,-0.004638671875,1.68609619141,0.770568847656,-0.251770019531
1534595840.290.9521484375,-0.368408203125,-0.000244140625,1.67846679688,0.617980957031,-0.190734863281
1534595840.290.955078125,-0.36572265625,0.003173828125,1.708984375,0.518798828125,-0.259399414062
1534595840.290.956298828125,-0.360595703125,0.001220703125,1.75476074219,0.602722167969,-0.564575195312
1534595840.290.95361328125,-0.360107421875,0.00341796875,1.70135498047,0.617980957031,-0.579833984375
1534595840.290.954833984375,-0.3623046875,0.001708984375,1.54876708984,0.694274902344,-0.480651855469
1534595840.290.9580078125,-0.3681640625,-0.001708984375,1.57928466797,1.04522705078,-0.42724609375
1534595840.30.954833984375,-0.368896484375,0.003662109375,1.68609619141,0.885009765625,-0.6103515625
1534595840.30.95166015625,-0.36669921875,0.00390625,1.57165527344,0.625610351562,-0.602722167969
1534595840.30.95166015625,-0.3671875,0.001708984375,1.49536132812,0.411987304688,-0.526428222656
1534595840.30.951904296875,-0.368896484375,-0.002197265625,1.37329101562,0.656127929688,-0.411987304688
1534595840.30.9521484375,-0.3701171875,-0.0048828125,1.5869140625,0.732421875,-0.442504882812
1534595840.30.954833984375,-0.371337890625,-0.000244140625,1.8310546875,0.625610351562,-0.625610351562
1534595840.30.953857421875,-0.372314453125,0.001708984375,1.84631347656,0.579833984375,-0.6103515625
1534595840.30.9521484375,-0.369140625,0.00341796875,1.73187255859,0.823974609375,-0.419616699219
1534595840.30.954345703125,-0.369140625,0.002197265625,1.48773193359,0.991821289062,-0.312805175781
1534595840.30.952880859375,-0.36865234375,-0.001953125,1.32751464844,0.877380371094,-0.274658203125
1534595840.310.954345703125,-0.3681640625,-0.00048828125,1.41143798828,0.91552734375,-0.3662109375
1534595840.310.95703125,-0.36962890625,0.000244140625,1.60217285156,0.91552734375,-0.656127929688
1534595840.310.95361328125,-0.369873046875,-0.003173828125,1.63269042969,0.747680664062,-0.541687011719
1534595840.310.954833984375,-0.365234375,-0.0078125,1.55639648438,0.572204589844,-0.579833984375
1534595840.310.95703125,-0.36376953125,-0.00732421875,1.64031982422,0.587463378906,-0.587463378906
1534595840.310.95654296875,-0.37109375,-0.0048828125,1.61743164062,0.595092773438,-0.663757324219
1534595840.310.955078125,-0.369384765625,0.000732421875,1.53350830078,0.617980957031,-0.740051269531
1534595840.310.9541015625,-0.366455078125,0.00634765625,1.35803222656,0.595092773438,-0.617980957031
1534595840.310.955078125,-0.370361328125,0.00244140625,1.61743164062,0.503540039062,-0.564575195312
1534595840.310.95166015625,-0.371337890625,-0.00439453125,1.67846679688,0.595092773438,-0.465393066406
1534595840.320.9521484375,-0.370849609375,-0.006591796875,1.66320800781,0.648498535156,-0.434875488281
1534595840.320.956787109375,-0.370361328125,-0.00830078125,1.72424316406,0.625610351562,-0.389099121094
1534595840.320.956787109375,-0.36767578125,-0.00732421875,1.46484375,0.556945800781,-0.473022460938
1534595840.320.953857421875,-0.367919921875,-0.001220703125,1.22833251953,0.709533691406,-0.526428222656
1534595840.320.9521484375,-0.3681640625,0.000732421875,1.25885009766,0.3662109375,-0.572204589844
1534595840.320.953125,-0.36767578125,-0.002197265625,1.60980224609,0.259399414062,-0.640869140625
1534595840.320.95458984375,-0.36865234375,-0.002197265625,1.73187255859,0.465393066406,-0.564575195312
1534595840.320.95654296875,-0.3671875,0.004150390625,1.65557861328,0.42724609375,-0.503540039062
1534595840.320.957763671875,-0.368408203125,0.004638671875,1.67083740234,0.473022460938,-0.465393066406
1534595840.320.9580078125,-0.368896484375,0.001953125,1.54876708984,0.465393066406,-0.617980957031
1534595840.330.956298828125,-0.367919921875,0.0009765625,1.57165527344,0.724792480469,-0.640869140625
1534595840.330.952880859375,-0.36767578125,-0.00146484375,1.44958496094,0.923156738281,-0.6103515625
1534595840.330.9541015625,-0.364501953125,-0.003662109375,1.45721435547,0.831604003906,-0.434875488281
1534595840.330.95556640625,-0.365966796875,-0.001220703125,1.40380859375,0.564575195312,-0.236511230469
1534595840.330.952392578125,-0.367919921875,-0.000244140625,1.44195556641,0.579833984375,-0.144958496094
1534595840.340.952880859375,-0.3681640625,-0.0029296875,1.67083740234,0.54931640625,-0.495910644531
1534595840.340.955810546875,-0.365966796875,0.00390625,1.42669677734,0.419616699219,-0.175476074219
1534595840.340.956787109375,-0.3681640625,-0.002197265625,1.37329101562,0.320434570312,-0.411987304688
1534595840.340.953125,-0.368408203125,0.001708984375,1.49536132812,0.495910644531,-0.328063964844
1534595840.340.9541015625,-0.36962890625,-0.000732421875,1.53350830078,0.656127929688,-0.381469726562
1534595840.340.95458984375,-0.369384765625,-0.00048828125,1.52587890625,0.587463378906,-0.3662109375
1534595840.350.955810546875,-0.36572265625,0.001708984375,1.55639648438,0.48828125,-0.450134277344
1534595840.350.9541015625,-0.365234375,0.002685546875,1.74713134766,0.617980957031,-0.534057617188
1534595840.350.953857421875,-0.3662109375,0.001220703125,1.43432617188,0.862121582031,-0.373840332031
1534595840.350.95166015625,-0.369140625,-0.00341796875,1.41143798828,0.556945800781,-0.320434570312
1534595840.350.9521484375,-0.368896484375,-0.007080078125,1.48010253906,0.30517578125,-0.389099121094
1534595840.360.95166015625,-0.366943359375,-0.01025390625,1.67083740234,0.251770019531,-0.228881835938
1534595840.360.953857421875,-0.367431640625,-0.005859375,1.62506103516,0.30517578125,-0.328063964844
1534595840.360.95361328125,-0.3671875,-0.000244140625,1.63269042969,0.350952148438,-0.373840332031
1534595840.360.9541015625,-0.365234375,0.00244140625,1.67846679688,0.457763671875,-0.167846679688
1534595840.360.95263671875,-0.364990234375,-0.000732421875,1.64794921875,0.297546386719,-0.320434570312
1534595840.360.9541015625,-0.367919921875,0.001220703125,1.67846679688,0.297546386719,-0.205993652344
1534595840.370.95458984375,-0.367919921875,0.000732421875,1.66320800781,0.465393066406,-0.526428222656
1534595840.370.954345703125,-0.37060546875,-0.000732421875,1.47247314453,0.656127929688,-0.389099121094
1534595840.370.953125,-0.3701171875,-0.00341796875,1.42669677734,0.625610351562,-0.3662109375
1534595840.370.95556640625,-0.368408203125,-0.005126953125,1.46484375,0.411987304688,-0.526428222656
1534595840.370.954345703125,-0.37158203125,0.0009765625,1.41143798828,0.434875488281,-0.381469726562
1534595840.370.951416015625,-0.369384765625,-0.00537109375,1.41143798828,0.602722167969,-0.297546386719
1534595840.370.952880859375,-0.36962890625,-0.005859375,1.47247314453,0.946044921875,-0.213623046875
1534595840.380.952392578125,-0.36669921875,-0.000732421875,1.80053710938,0.534057617188,-0.289916992188
1534595840.380.951171875,-0.365966796875,0.0048828125,1.33514404297,0.389099121094,-0.595092773438
1534595840.380.954833984375,-0.366455078125,-0.0009765625,1.43432617188,0.350952148438,-0.572204589844
1534595840.380.95361328125,-0.367431640625,0.005615234375,1.51062011719,0.625610351562,-0.587463378906
1534595840.380.95361328125,-0.37060546875,0.001708984375,1.55639648438,0.541687011719,-0.79345703125
1534595840.380.953125,-0.368408203125,-0.00146484375,1.47247314453,0.587463378906,-0.831604003906
1534595840.390.955322265625,-0.364990234375,-0.00146484375,1.73950195312,0.694274902344,-0.595092773438
1534595840.390.95361328125,-0.3720703125,-0.004150390625,1.60980224609,0.694274902344,-0.54931640625
1534595840.390.953125,-0.371337890625,-0.00439453125,1.39617919922,0.518798828125,-0.587463378906
1534595840.390.956787109375,-0.36767578125,-0.003173828125,1.35803222656,0.663757324219,-0.633239746094
1534595840.390.95556640625,-0.3701171875,0.001220703125,1.41143798828,0.686645507812,-0.48828125
1534595840.390.954345703125,-0.369873046875,-0.000244140625,1.60217285156,0.91552734375,-0.335693359375
1534595840.390.954833984375,-0.365966796875,-0.001953125,1.60980224609,0.801086425781,-0.457763671875
1534595840.390.955322265625,-0.367919921875,0.0009765625,1.51824951172,0.595092773438,-0.595092773438
1534595840.390.953369140625,-0.36767578125,0.001708984375,1.3427734375,0.411987304688,-0.511169433594
1534595840.40.95263671875,-0.36572265625,-0.002685546875,1.27410888672,0.213623046875,-0.457763671875
1534595840.40.952880859375,-0.36767578125,-0.00244140625,1.37329101562,0.480651855469,-0.48828125
1534595840.40.95263671875,-0.371337890625,-0.002197265625,1.44958496094,0.503540039062,-0.434875488281
1534595840.40.951904296875,-0.369873046875,0.0,1.59454345703,0.465393066406,-0.335693359375
1534595840.40.953125,-0.36669921875,0.00048828125,1.60217285156,0.747680664062,-0.42724609375
1534595840.40.952392578125,-0.3701171875,-0.007080078125,1.62506103516,0.679016113281,-0.419616699219
1534595840.40.952392578125,-0.3701171875,-0.007080078125,1.53350830078,0.625610351562,-0.312805175781
1534595840.40.954345703125,-0.371826171875,-0.00341796875,1.44195556641,0.572204589844,-0.213623046875
1534595840.40.954345703125,-0.3642578125,-0.000732421875,1.43432617188,0.701904296875,-0.343322753906
1534595840.40.95458984375,-0.366943359375,-0.002197265625,1.37329101562,0.846862792969,-0.335693359375
1534595840.410.957275390625,-0.366943359375,0.0029296875,1.41143798828,0.686645507812,-0.511169433594
1534595840.410.957763671875,-0.36865234375,0.005615234375,1.54113769531,0.686645507812,-0.556945800781
1534595840.410.953125,-0.368896484375,-0.000244140625,1.50299072266,0.946044921875,-0.473022460938
1534595840.410.9541015625,-0.3701171875,-0.001953125,1.51824951172,0.907897949219,-0.434875488281
1534595840.410.956787109375,-0.36865234375,-0.00244140625,1.38854980469,0.747680664062,-0.419616699219
1534595840.410.95361328125,-0.367919921875,-0.00244140625,1.43432617188,0.54931640625,-0.373840332031
1534595840.410.95361328125,-0.36865234375,-0.000244140625,1.35803222656,0.518798828125,-0.343322753906
1534595840.410.953125,-0.3671875,-0.00048828125,1.53350830078,0.526428222656,-0.457763671875
1534595840.410.95361328125,-0.36865234375,-0.000732421875,1.46484375,0.3662109375,-0.396728515625
1534595840.410.955322265625,-0.36962890625,-0.0048828125,1.44958496094,0.198364257812,-0.289916992188
1534595840.420.957763671875,-0.369140625,-0.005859375,1.66320800781,0.274658203125,-0.442504882812
1534595840.420.955810546875,-0.369873046875,-0.00146484375,1.64794921875,0.358581542969,-0.534057617188
1534595840.420.953369140625,-0.369873046875,-0.002197265625,1.72424316406,0.526428222656,-0.381469726562
1534595840.420.955078125,-0.369873046875,-0.004638671875,1.76239013672,0.534057617188,-0.213623046875
1534595840.420.956298828125,-0.37060546875,-0.00439453125,1.5869140625,0.381469726562,-0.3662109375
1534595840.420.952392578125,-0.37109375,-0.00341796875,1.50299072266,0.381469726562,-0.434875488281
1534595840.420.951171875,-0.37109375,-0.00439453125,1.59454345703,0.373840332031,-0.312805175781
1534595840.420.955810546875,-0.37158203125,-0.002197265625,1.74713134766,0.640869140625,-0.205993652344
1534595840.420.955322265625,-0.37158203125,-0.001220703125,1.63269042969,0.640869140625,-0.1220703125
1534595840.420.95556640625,-0.3701171875,-0.00244140625,1.68609619141,0.534057617188,-0.1220703125
1534595840.430.950927734375,-0.370361328125,-0.002685546875,1.48773193359,0.473022460938,-0.267028808594
1534595840.430.94970703125,-0.372314453125,-0.00390625,1.48773193359,0.42724609375,-0.389099121094
1534595840.430.953125,-0.371826171875,-0.001708984375,1.54113769531,0.457763671875,-0.556945800781
1534595840.430.954833984375,-0.366943359375,-0.0029296875,1.67083740234,0.648498535156,-0.556945800781
1534595840.430.95654296875,-0.369873046875,-0.00439453125,1.70135498047,0.656127929688,-0.389099121094
1534595840.430.95751953125,-0.372314453125,-0.000244140625,1.50299072266,0.648498535156,-0.3662109375
1534595840.430.95703125,-0.36865234375,-0.00048828125,1.37329101562,0.350952148438,-0.259399414062
1534595840.430.952392578125,-0.3642578125,-0.004150390625,1.38092041016,0.495910644531,-0.320434570312
1534595840.430.951904296875,-0.362548828125,-0.002197265625,1.37329101562,0.640869140625,-0.495910644531
1534595840.430.953369140625,-0.366943359375,0.00048828125,1.54113769531,0.602722167969,-0.785827636719
1534595840.440.955078125,-0.367431640625,0.001953125,1.60217285156,0.434875488281,-0.54931640625
1534595840.440.95556640625,-0.36865234375,0.00146484375,1.55639648438,0.259399414062,-0.434875488281
1534595840.440.95166015625,-0.369873046875,0.00439453125,1.59454345703,0.48828125,-0.396728515625
1534595840.440.950439453125,-0.3671875,0.005126953125,1.45721435547,0.732421875,-0.297546386719
1534595840.440.95263671875,-0.36669921875,-0.002197265625,1.40380859375,0.900268554688,-0.320434570312
1534595840.440.955322265625,-0.3681640625,-0.00341796875,1.48010253906,0.770568847656,-0.457763671875
1534595840.440.954833984375,-0.368896484375,0.0009765625,1.57165527344,0.785827636719,-0.541687011719
1534595840.440.954833984375,-0.368896484375,0.0009765625,1.50299072266,0.602722167969,-0.579833984375
1534595840.440.95166015625,-0.37158203125,0.00634765625,1.52587890625,0.297546386719,-0.602722167969
1534595840.440.951416015625,-0.3720703125,0.001220703125,1.46484375,0.274658203125,-0.526428222656
1534595840.450.955078125,-0.366943359375,-0.0029296875,1.55639648438,0.709533691406,-0.343322753906
1534595840.450.955810546875,-0.3681640625,0.00244140625,1.55639648438,0.801086425781,-0.328063964844
1534595840.450.953857421875,-0.365966796875,0.001953125,1.44958496094,0.732421875,-0.457763671875
1534595840.450.951904296875,-0.36474609375,0.002197265625,1.53350830078,0.495910644531,-0.48828125
1534595840.450.951416015625,-0.369140625,0.00390625,1.61743164062,0.526428222656,-0.289916992188
1534595840.450.953369140625,-0.369873046875,0.003662109375,1.80816650391,0.442504882812,-0.396728515625
1534595840.450.95263671875,-0.366943359375,0.001708984375,1.8310546875,0.518798828125,-0.297546386719
1534595840.450.950439453125,-0.368408203125,-0.00146484375,1.50299072266,0.358581542969,-0.312805175781
1534595840.450.95361328125,-0.373291015625,-0.006103515625,1.30462646484,0.389099121094,-0.335693359375
1534595840.450.95654296875,-0.37109375,-0.001708984375,1.28173828125,0.518798828125,-0.320434570312
1534595840.460.956787109375,-0.36962890625,0.001708984375,1.3427734375,0.694274902344,-0.251770019531
1534595840.460.95361328125,-0.370849609375,-0.000244140625,1.60980224609,0.6103515625,-0.297546386719
1534595840.460.953857421875,-0.3701171875,-0.0009765625,1.64031982422,0.373840332031,-0.343322753906
1534595840.460.955322265625,-0.3720703125,-0.00341796875,1.68609619141,0.144958496094,-0.373840332031
1534595840.460.953857421875,-0.369873046875,-0.002197265625,1.60980224609,0.358581542969,-0.312805175781
1534595840.460.952880859375,-0.3681640625,-0.000732421875,1.38854980469,0.465393066406,-0.381469726562
1534595840.460.952392578125,-0.369384765625,-0.003173828125,1.41143798828,0.205993652344,-0.42724609375
1534595840.460.952392578125,-0.3671875,-0.000732421875,1.43432617188,0.152587890625,-0.518798828125
1534595840.460.953125,-0.367919921875,0.004638671875,1.41143798828,0.396728515625,-0.541687011719
1534595840.460.953125,-0.367919921875,0.004638671875,1.62506103516,0.434875488281,-0.373840332031
1534595840.470.95361328125,-0.36767578125,0.0029296875,1.69372558594,0.526428222656,-0.335693359375
1534595840.470.95654296875,-0.36376953125,0.0009765625,1.64031982422,0.648498535156,-0.251770019531
1534595840.470.955322265625,-0.36474609375,0.00146484375,1.66320800781,0.503540039062,-0.389099121094
1534595840.470.951904296875,-0.370361328125,0.00048828125,1.70135498047,0.289916992188,-0.396728515625
1534595840.470.95263671875,-0.36962890625,-0.00244140625,1.75476074219,0.244140625,-0.495910644531
1534595840.470.952880859375,-0.367431640625,-0.00048828125,1.74713134766,0.556945800781,-0.495910644531
1534595840.470.955810546875,-0.36669921875,-0.0009765625,1.5869140625,0.625610351562,-0.534057617188
1534595840.470.955810546875,-0.3662109375,-0.001953125,1.41143798828,0.701904296875,-0.404357910156
1534595840.470.954345703125,-0.367431640625,0.00048828125,1.44195556641,0.701904296875,-0.343322753906
1534595840.470.956298828125,-0.366455078125,-0.001953125,1.48773193359,0.572204589844,-0.587463378906
1534595840.470.95556640625,-0.3642578125,-0.00244140625,1.44195556641,0.701904296875,-0.518798828125
1534595840.480.954833984375,-0.365234375,-0.003173828125,1.44958496094,0.640869140625,-0.541687011719
1534595840.480.953857421875,-0.36767578125,0.0029296875,1.47247314453,0.465393066406,-0.495910644531
1534595840.480.955322265625,-0.368896484375,0.005615234375,1.46484375,0.564575195312,-0.221252441406
1534595840.480.95849609375,-0.366943359375,-0.001708984375,1.40380859375,0.747680664062,-0.106811523438
1534595840.480.954345703125,-0.363525390625,0.000244140625,1.33514404297,0.778198242188,-0.205993652344
1534595840.480.951904296875,-0.3662109375,0.00244140625,1.57165527344,0.778198242188,-0.343322753906
1534595840.480.953857421875,-0.36767578125,-0.002685546875,1.41143798828,0.694274902344,-0.503540039062
1534595840.480.955078125,-0.36669921875,-0.003173828125,1.30462646484,0.404357910156,-0.320434570312
1534595840.480.9541015625,-0.36767578125,-0.003173828125,1.33514404297,0.335693359375,-0.328063964844
1534595840.490.95263671875,-0.3662109375,-0.005615234375,1.60980224609,0.289916992188,-0.3662109375
1534595840.490.95458984375,-0.36865234375,-0.001953125,1.56402587891,0.495910644531,-0.54931640625
1534595840.490.95654296875,-0.3671875,-0.001708984375,1.54113769531,0.679016113281,-0.442504882812
1534595840.50.95458984375,-0.369140625,-0.0029296875,1.67846679688,0.42724609375,-0.190734863281
1534595840.50.951904296875,-0.373046875,-0.0029296875,1.41906738281,0.343322753906,-0.1220703125
1534595840.50.95361328125,-0.369873046875,0.002197265625,1.44195556641,0.54931640625,-0.587463378906
1534595840.50.956787109375,-0.365966796875,-0.00341796875,1.52587890625,0.251770019531,-0.411987304688
1534595840.50.95166015625,-0.370361328125,-0.0029296875,1.3427734375,0.312805175781,-0.358581542969
1534595840.510.953125,-0.36865234375,-0.00439453125,1.40380859375,0.396728515625,-0.228881835938
1534595840.510.949462890625,-0.368896484375,0.0,1.35803222656,0.389099121094,-0.06103515625
1534595840.510.951416015625,-0.370361328125,0.00146484375,1.51062011719,0.480651855469,-0.396728515625
1534595840.510.952880859375,-0.368896484375,0.004150390625,1.50299072266,0.67138671875,-0.617980957031
1534595840.510.952392578125,-0.36865234375,0.001220703125,1.33514404297,0.625610351562,-0.534057617188
1534595840.510.954345703125,-0.368408203125,0.003173828125,1.12915039062,0.907897949219,-0.717163085938
1534595840.510.952392578125,-0.368408203125,0.005859375,1.53350830078,0.755310058594,-0.404357910156
1534595840.520.951171875,-0.3671875,0.00048828125,1.51062011719,0.762939453125,-0.267028808594
1534595840.520.95361328125,-0.3701171875,-0.00244140625,1.67846679688,0.808715820312,-0.328063964844
1534595840.520.95556640625,-0.369140625,0.00048828125,1.52587890625,0.747680664062,-0.495910644531
1534595840.520.955810546875,-0.365966796875,0.001220703125,1.35803222656,0.48828125,-0.54931640625
1534595840.520.955078125,-0.371337890625,-0.007568359375,1.56402587891,0.48828125,-0.511169433594
1534595840.530.95068359375,-0.368408203125,-0.001220703125,1.61743164062,0.541687011719,-0.785827636719
1534595840.530.951171875,-0.368896484375,0.0009765625,1.72424316406,0.656127929688,-0.595092773438
1534595840.530.953857421875,-0.36669921875,0.0048828125,1.44958496094,0.602722167969,-0.67138671875
1534595840.530.953857421875,-0.36865234375,0.001708984375,1.43432617188,0.862121582031,-0.579833984375
1534595840.530.956298828125,-0.36962890625,-0.00244140625,1.68609619141,1.01470947266,-0.595092773438
1534595840.540.955078125,-0.367431640625,-0.001220703125,1.3427734375,0.572204589844,-0.79345703125
1534595840.540.9501953125,-0.373779296875,0.005859375,1.59454345703,0.328063964844,-0.663757324219
1534595840.540.955322265625,-0.36962890625,-0.003662109375,1.54876708984,0.42724609375,-0.732421875
1534595840.540.951416015625,-0.369873046875,0.000244140625,1.85394287109,0.717163085938,-0.617980957031
1534595840.540.95263671875,-0.369140625,0.00390625,1.5869140625,0.54931640625,-0.587463378906
1534595840.540.95458984375,-0.368408203125,-0.00390625,1.48773193359,0.511169433594,-0.541687011719
1534595840.540.95361328125,-0.36669921875,-0.00244140625,1.46484375,0.930786132812,-0.633239746094
1534595840.540.95654296875,-0.36572265625,-0.003173828125,1.42669677734,0.762939453125,-0.495910644531
1534595840.550.954833984375,-0.3662109375,-0.005615234375,1.5869140625,0.595092773438,-0.434875488281
1534595840.550.955322265625,-0.368896484375,-0.002685546875,1.3427734375,0.6103515625,-0.267028808594
1534595840.550.95703125,-0.37060546875,0.00146484375,1.36566162109,0.587463378906,-0.289916992188
1534595840.550.955078125,-0.3720703125,0.001953125,1.37329101562,0.411987304688,-0.572204589844
1534595840.550.9560546875,-0.3701171875,-0.00390625,1.63269042969,0.457763671875,-0.480651855469
1534595840.550.954345703125,-0.3681640625,-0.00390625,1.80816650391,0.617980957031,-0.175476074219
1534595840.550.9501953125,-0.371337890625,0.003662109375,1.55639648438,0.6103515625,-0.0381469726562
1534595840.550.950927734375,-0.36865234375,0.00146484375,1.3427734375,0.434875488281,-0.175476074219
1534595840.550.951904296875,-0.3671875,0.0029296875,1.46484375,0.457763671875,-0.48828125
1534595840.560.953857421875,-0.365966796875,0.002685546875,1.52587890625,0.42724609375,-0.389099121094
1534595840.560.954345703125,-0.3671875,-0.000244140625,1.51062011719,0.137329101562,-0.320434570312
1534595840.560.9541015625,-0.36962890625,-0.003173828125,1.38092041016,0.30517578125,-0.236511230469
1534595840.560.95654296875,-0.370361328125,-0.000244140625,1.23596191406,0.54931640625,-0.198364257812
1534595840.560.960693359375,-0.372802734375,0.0,1.43432617188,0.320434570312,-0.251770019531
1534595840.560.958251953125,-0.371826171875,-0.004638671875,1.73187255859,0.259399414062,-0.289916992188
1534595840.560.9541015625,-0.367919921875,0.001220703125,1.57928466797,0.282287597656,-0.244140625
1534595840.560.953125,-0.367431640625,0.00146484375,1.47247314453,0.411987304688,-0.144958496094
1534595840.560.952880859375,-0.36572265625,0.000244140625,1.53350830078,0.3662109375,-0.297546386719
1534595840.560.9521484375,-0.3642578125,0.00244140625,1.68609619141,0.167846679688,-0.152587890625
1534595840.560.955078125,-0.363037109375,-0.001708984375,1.72424316406,0.160217285156,-0.0839233398438
1534595840.570.95849609375,-0.36669921875,-0.0078125,1.5869140625,0.114440917969,-0.297546386719
1534595840.570.95703125,-0.36767578125,-0.005859375,1.48773193359,0.343322753906,-0.297546386719
1534595840.570.953369140625,-0.36767578125,-0.0048828125,1.48010253906,0.343322753906,-0.343322753906
1534595840.570.953125,-0.371337890625,-0.00830078125,1.37329101562,0.373840332031,-0.350952148438
1534595840.570.952880859375,-0.3701171875,-0.005126953125,1.27410888672,0.358581542969,-0.205993652344
1534595840.570.9482421875,-0.369140625,-0.004638671875,1.48010253906,0.389099121094,-0.152587890625
1534595840.570.94775390625,-0.36767578125,-0.0029296875,1.37329101562,0.442504882812,-0.129699707031
1534595840.570.952392578125,-0.36962890625,-0.000244140625,1.32751464844,0.526428222656,-0.221252441406
1534595840.570.95263671875,-0.365966796875,0.002197265625,1.220703125,0.656127929688,-0.54931640625
1534595840.570.95068359375,-0.364013671875,0.003173828125,1.48773193359,0.701904296875,-0.473022460938
1534595840.580.9541015625,-0.368896484375,0.00048828125,1.73187255859,0.808715820312,-0.175476074219
1534595840.580.955078125,-0.368408203125,-0.000244140625,1.80053710938,0.480651855469,0.0
1534595840.580.955078125,-0.371826171875,-0.00048828125,1.80816650391,0.18310546875,-0.0991821289062
1534595840.580.95654296875,-0.37353515625,0.001953125,1.41143798828,0.3662109375,-0.274658203125
1534595840.580.95458984375,-0.3681640625,0.003173828125,1.31225585938,0.534057617188,-0.465393066406
1534595840.580.951171875,-0.365966796875,0.0009765625,1.41143798828,0.602722167969,-0.6103515625
1534595840.580.95068359375,-0.369384765625,0.0029296875,1.45721435547,0.572204589844,-0.640869140625
1534595840.580.9521484375,-0.3701171875,-0.00048828125,1.51824951172,0.48828125,-0.534057617188
1534595840.580.951904296875,-0.37060546875,-0.002685546875,1.66320800781,0.778198242188,-0.328063964844
1534595840.580.953857421875,-0.371337890625,0.002685546875,1.54113769531,0.946044921875,-0.335693359375
1534595840.590.95458984375,-0.370361328125,0.00244140625,1.47247314453,0.701904296875,-0.473022460938
1534595840.590.95361328125,-0.3701171875,0.000732421875,1.37329101562,0.373840332031,-0.396728515625
1534595840.590.955078125,-0.3681640625,0.0,1.32751464844,0.694274902344,-0.465393066406
1534595840.590.9541015625,-0.368408203125,0.0,1.36566162109,0.938415527344,-0.679016113281
1534595840.590.953369140625,-0.36767578125,-0.0009765625,1.25885009766,0.953674316406,-0.556945800781
1534595840.590.953857421875,-0.3671875,-0.001953125,1.23596191406,0.823974609375,-0.556945800781
1534595840.590.952392578125,-0.36767578125,-0.001220703125,1.66320800781,0.839233398438,-0.503540039062
1534595840.590.951171875,-0.36572265625,-0.0009765625,1.85394287109,0.923156738281,-0.48828125
1534595840.590.95361328125,-0.367919921875,0.000244140625,1.74713134766,0.869750976562,-0.587463378906
1534595840.60.95654296875,-0.369873046875,0.0,1.51062011719,0.785827636719,-0.663757324219
1534595840.60.953369140625,-0.3681640625,0.000732421875,1.29699707031,0.656127929688,-0.663757324219
1534595840.60.94970703125,-0.364501953125,0.00048828125,1.31225585938,0.885009765625,-0.373840332031
1534595840.60.953125,-0.36474609375,-0.005126953125,1.38854980469,1.02233886719,-0.450134277344
1534595840.60.956298828125,-0.367919921875,-0.008056640625,1.64031982422,0.740051269531,-0.6103515625
1534595840.60.954833984375,-0.36767578125,-0.006103515625,1.76239013672,0.885009765625,-0.640869140625
1534595840.60.95263671875,-0.3662109375,-0.001220703125,1.64031982422,0.808715820312,-0.587463378906
1534595840.60.94921875,-0.367919921875,0.0029296875,1.50299072266,0.801086425781,-0.633239746094
1534595840.60.948974609375,-0.369873046875,0.00634765625,1.38854980469,0.862121582031,-0.503540039062
1534595840.60.9521484375,-0.3681640625,0.0029296875,1.41906738281,0.885009765625,-0.335693359375
1534595840.610.9541015625,-0.36474609375,-0.003662109375,1.64794921875,0.816345214844,-0.328063964844
1534595840.610.9541015625,-0.364501953125,-0.00439453125,1.68609619141,0.67138671875,-0.289916992188
1534595840.610.95263671875,-0.36474609375,-0.005126953125,1.54113769531,0.465393066406,-0.328063964844
1534595840.610.95166015625,-0.3681640625,-0.0048828125,1.67083740234,0.244140625,-0.328063964844
1534595840.610.95556640625,-0.369384765625,-0.0048828125,1.77001953125,0.42724609375,-0.343322753906
1534595840.610.95654296875,-0.365966796875,-0.004638671875,1.708984375,0.602722167969,-0.541687011719
1534595840.610.955078125,-0.3662109375,-0.00244140625,1.62506103516,0.686645507812,-0.480651855469
1534595840.610.956787109375,-0.36572265625,-0.001953125,1.48773193359,0.564575195312,-0.282287597656
1534595840.610.95458984375,-0.366943359375,-0.001953125,1.57928466797,0.633239746094,-0.236511230469
1534595840.610.95263671875,-0.368896484375,0.0,1.76239013672,0.48828125,-0.411987304688
1534595840.610.951171875,-0.3662109375,0.001708984375,1.708984375,0.396728515625,-0.473022460938
1534595840.620.949462890625,-0.36669921875,0.001953125,1.41143798828,0.48828125,-0.350952148438
1534595840.620.952880859375,-0.37060546875,0.00244140625,1.42669677734,0.694274902344,-0.259399414062
1534595840.620.956298828125,-0.36962890625,-0.002197265625,1.41906738281,0.617980957031,-0.152587890625
1534595840.620.955810546875,-0.3681640625,-0.008056640625,1.35803222656,0.595092773438,-0.381469726562
1534595840.620.955322265625,-0.37060546875,-0.003173828125,1.33514404297,0.480651855469,-0.3662109375
1534595840.620.94970703125,-0.372802734375,0.00048828125,1.48010253906,0.556945800781,-0.160217285156
1534595840.620.950927734375,-0.36962890625,-0.000732421875,1.51062011719,0.663757324219,-0.190734863281
1534595840.620.95849609375,-0.365478515625,0.0029296875,1.52587890625,0.503540039062,-0.236511230469
1534595840.620.956787109375,-0.370361328125,-0.00048828125,1.35040283203,0.518798828125,-0.129699707031
1534595840.620.954833984375,-0.3740234375,-0.004638671875,1.40380859375,0.404357910156,-0.137329101562
1534595840.630.9541015625,-0.36865234375,-0.0029296875,1.42669677734,0.335693359375,-0.259399414062
1534595840.630.9560546875,-0.364501953125,0.0,1.56402587891,0.312805175781,-0.160217285156
1534595840.630.95458984375,-0.366943359375,0.001220703125,1.72424316406,0.419616699219,-0.129699707031
1534595840.630.952392578125,-0.370361328125,0.000244140625,1.69372558594,0.411987304688,-0.320434570312
1534595840.630.9521484375,-0.368408203125,0.003173828125,1.67083740234,0.450134277344,-0.289916992188
1534595840.630.951416015625,-0.368408203125,-0.001220703125,1.74713134766,0.709533691406,-0.137329101562
1534595840.630.95263671875,-0.369873046875,-0.002685546875,1.44958496094,0.801086425781,-0.175476074219
1534595840.630.953125,-0.36865234375,-0.0009765625,1.31225585938,0.633239746094,-0.0991821289062
1534595840.630.952392578125,-0.366455078125,-0.00439453125,1.28936767578,0.480651855469,0.0152587890625
1534595840.630.953125,-0.365966796875,-0.001220703125,1.41143798828,0.251770019531,0.0686645507812
1534595840.640.953369140625,-0.366455078125,0.00048828125,1.57928466797,0.343322753906,-0.18310546875
1534595840.640.950927734375,-0.369140625,0.0,1.59454345703,0.473022460938,-0.244140625
1534595840.640.954345703125,-0.37109375,-0.000732421875,1.44195556641,0.396728515625,-0.198364257812
1534595840.640.95703125,-0.371337890625,-0.002685546875,1.51824951172,0.312805175781,-0.282287597656
1534595840.640.951904296875,-0.371826171875,-0.00146484375,1.64031982422,0.228881835938,-0.328063964844
1534595840.640.950439453125,-0.37158203125,0.00048828125,1.70135498047,0.335693359375,-0.205993652344
1534595840.640.952392578125,-0.36962890625,0.0029296875,1.35040283203,0.42724609375,-0.114440917969
1534595840.640.952392578125,-0.3671875,0.006591796875,1.30462646484,0.6103515625,-0.0839233398438
1534595840.640.952880859375,-0.369140625,0.01171875,1.64031982422,0.572204589844,-0.297546386719
1534595840.640.954345703125,-0.370361328125,0.00927734375,1.76239013672,0.373840332031,-0.473022460938
1534595840.650.9541015625,-0.36767578125,0.003173828125,1.64794921875,0.54931640625,-0.465393066406
1534595840.650.950927734375,-0.366455078125,0.0009765625,1.59454345703,0.694274902344,-0.3662109375
1534595840.660.953369140625,-0.367431640625,-0.005615234375,1.46484375,0.625610351562,-0.6103515625
1534595840.660.951416015625,-0.3681640625,-0.000732421875,1.67083740234,0.686645507812,-0.663757324219
1534595840.660.95361328125,-0.372314453125,0.00146484375,1.51824951172,0.381469726562,-0.564575195312
1534595840.660.955322265625,-0.370849609375,-0.000732421875,1.59454345703,0.617980957031,-0.48828125
1534595840.660.957275390625,-0.372314453125,0.003662109375,1.66320800781,0.877380371094,-0.48828125
1534595840.660.955810546875,-0.37060546875,-0.002685546875,1.53350830078,0.839233398438,-0.587463378906
1534595840.670.959716796875,-0.3662109375,-0.002685546875,1.54113769531,0.556945800781,-0.755310058594
1534595840.670.95361328125,-0.369384765625,-0.000732421875,1.63269042969,0.663757324219,-0.961303710938
1534595840.670.953125,-0.36767578125,-0.00244140625,1.54113769531,0.79345703125,-0.8544921875
1534595840.670.95458984375,-0.365478515625,0.0,1.51062011719,0.808715820312,-0.801086425781
1534595840.670.958740234375,-0.364990234375,0.00146484375,1.15203857422,0.839233398438,-0.801086425781
1534595840.670.95556640625,-0.372802734375,-0.001953125,1.38092041016,1.01470947266,-0.839233398438
1534595840.670.95849609375,-0.371337890625,0.00146484375,1.93786621094,0.846862792969,-0.999450683594
1534595840.680.955322265625,-0.369384765625,0.000732421875,1.62506103516,0.938415527344,-0.961303710938
1534595840.680.95263671875,-0.3671875,0.003173828125,1.28173828125,0.961303710938,-0.923156738281
1534595840.680.952392578125,-0.369873046875,0.006103515625,1.25885009766,0.907897949219,-0.907897949219
1534595840.680.953369140625,-0.371337890625,-0.00244140625,1.51824951172,0.930786132812,-0.709533691406
1534595840.680.95458984375,-0.366455078125,-0.00341796875,1.50299072266,0.930786132812,-0.968933105469
1534595840.680.953857421875,-0.366943359375,0.004150390625,1.67083740234,0.823974609375,-0.846862792969
1534595840.680.953857421875,-0.366943359375,0.002197265625,1.77001953125,0.770568847656,-0.709533691406
1534595840.690.9541015625,-0.3701171875,-0.005859375,1.57165527344,0.930786132812,-0.54931640625
1534595840.690.954833984375,-0.36962890625,0.00048828125,1.52587890625,0.984191894531,-0.503540039062
1534595840.690.95458984375,-0.368408203125,-0.00390625,1.36566162109,0.648498535156,-0.442504882812
1534595840.690.948486328125,-0.369384765625,0.002685546875,1.57165527344,0.91552734375,-0.694274902344
1534595840.70.950439453125,-0.368896484375,-0.003662109375,1.5869140625,0.526428222656,-0.328063964844
1534595840.70.953857421875,-0.3671875,-0.00439453125,1.49536132812,0.595092773438,-0.473022460938
1534595840.70.951171875,-0.369873046875,-0.004638671875,1.24359130859,0.869750976562,-0.511169433594
1534595840.70.95361328125,-0.367919921875,-0.00732421875,1.66320800781,0.6103515625,-0.42724609375
1534595840.70.9521484375,-0.368896484375,0.00390625,1.53350830078,0.190734863281,-0.48828125
1534595840.70.95458984375,-0.369873046875,0.002197265625,1.44195556641,0.335693359375,-0.48828125
1534595840.70.953125,-0.370361328125,-0.001220703125,1.46484375,0.564575195312,-0.190734863281
1534595840.710.950927734375,-0.36572265625,0.003662109375,1.68609619141,0.3662109375,-0.350952148438
1534595840.710.94970703125,-0.369140625,-0.012451171875,1.60217285156,0.228881835938,-0.00762939453125
1534595840.710.951416015625,-0.37109375,-0.011962890625,1.41143798828,0.274658203125,0.0991821289062
1534595840.710.95556640625,-0.3720703125,-0.004150390625,1.51824951172,0.137329101562,-0.205993652344
1534595840.710.958251953125,-0.370849609375,-0.0009765625,1.61743164062,0.114440917969,-0.259399414062
1534595840.710.955810546875,-0.3701171875,-0.00439453125,1.62506103516,0.129699707031,-0.259399414062
1534595840.710.954345703125,-0.369384765625,-0.002197265625,1.63269042969,0.328063964844,-0.373840332031
1534595840.710.95654296875,-0.3671875,0.001220703125,1.54876708984,0.526428222656,-0.343322753906
1534595840.710.96044921875,-0.367431640625,-0.00244140625,1.64031982422,0.595092773438,-0.297546386719
1534595840.720.95751953125,-0.36962890625,-0.005126953125,1.77764892578,0.152587890625,-0.221252441406
1534595840.720.9521484375,-0.36767578125,-0.001708984375,1.77001953125,0.251770019531,-0.251770019531
1534595840.720.954833984375,-0.364501953125,0.00048828125,1.67083740234,0.396728515625,-0.228881835938
1534595840.720.956787109375,-0.36572265625,-0.00048828125,1.8310546875,0.450134277344,-0.434875488281
1534595840.720.95263671875,-0.369384765625,0.00048828125,1.75476074219,0.495910644531,-0.320434570312
1534595840.720.953857421875,-0.369384765625,-0.00537109375,1.46484375,0.495910644531,-0.0686645507812
1534595840.720.958251953125,-0.367431640625,-0.005615234375,1.25122070312,0.572204589844,-0.0534057617188
1534595840.720.956787109375,-0.365966796875,0.00048828125,1.41906738281,0.389099121094,-0.198364257812
1534595840.720.956787109375,-0.365966796875,0.0029296875,1.77001953125,0.358581542969,-0.350952148438
1534595840.720.955810546875,-0.368408203125,0.00634765625,1.69372558594,0.534057617188,-0.396728515625
1534595840.730.951904296875,-0.368408203125,0.006103515625,1.51824951172,0.6103515625,-0.228881835938
1534595840.730.953125,-0.368408203125,0.004638671875,1.46484375,0.396728515625,-0.228881835938
1534595840.730.95458984375,-0.37060546875,-0.001953125,1.35040283203,0.381469726562,-0.251770019531
1534595840.730.953857421875,-0.370849609375,-0.00732421875,1.44958496094,0.503540039062,-0.221252441406
1534595840.730.955078125,-0.36767578125,-0.00244140625,1.56402587891,0.411987304688,-0.267028808594
1534595840.730.95703125,-0.36669921875,0.003662109375,1.62506103516,0.221252441406,-0.205993652344
1534595840.730.957763671875,-0.37060546875,0.00390625,1.67846679688,0.297546386719,-0.190734863281
1534595840.730.95556640625,-0.3720703125,-0.001708984375,1.65557861328,0.450134277344,-0.221252441406
1534595840.730.95361328125,-0.369384765625,-0.004150390625,1.63269042969,0.633239746094,-0.259399414062
1534595840.730.953369140625,-0.366455078125,-0.00390625,1.47247314453,0.564575195312,-0.144958496094
1534595840.730.951904296875,-0.36767578125,-0.00439453125,1.42669677734,0.48828125,-0.0839233398438
1534595840.740.953857421875,-0.3681640625,0.000732421875,1.60217285156,0.48828125,-0.137329101562
1534595840.740.95458984375,-0.369873046875,0.0048828125,1.708984375,0.503540039062,-0.289916992188
1534595840.740.95068359375,-0.371337890625,0.00927734375,1.52587890625,0.404357910156,-0.282287597656
1534595840.740.951171875,-0.36865234375,0.005859375,1.50299072266,0.350952148438,-0.442504882812
1534595840.740.95556640625,-0.365234375,0.001953125,1.61743164062,0.473022460938,-0.3662109375
1534595840.740.95458984375,-0.365478515625,-0.000244140625,1.73950195312,0.79345703125,-0.328063964844
1534595840.740.953125,-0.367919921875,-0.005615234375,1.64031982422,1.00708007812,-0.404357910156
1534595840.740.952392578125,-0.3681640625,-0.002685546875,1.38854980469,0.656127929688,-0.30517578125
1534595840.740.951904296875,-0.3671875,-0.00244140625,1.35803222656,0.625610351562,-0.129699707031
1534595840.750.953857421875,-0.3681640625,-0.005615234375,1.59454345703,0.663757324219,-0.389099121094
1534595840.750.952880859375,-0.372314453125,-0.0048828125,1.80816650391,0.679016113281,-0.564575195312
1534595840.750.95458984375,-0.372802734375,-0.000732421875,1.54876708984,0.541687011719,-0.511169433594
1534595840.750.95361328125,-0.369140625,0.00341796875,1.41143798828,0.282287597656,-0.541687011719
1534595840.750.95263671875,-0.368408203125,0.003662109375,1.48010253906,0.259399414062,-0.3662109375
1534595840.750.953857421875,-0.36767578125,0.000732421875,1.73187255859,0.373840332031,-0.282287597656
1534595840.750.9541015625,-0.36669921875,-0.00048828125,1.50299072266,0.419616699219,-0.213623046875
1534595840.750.954345703125,-0.367919921875,0.0,1.43432617188,0.442504882812,-0.144958496094
1534595840.750.95166015625,-0.368408203125,-0.001220703125,1.56402587891,0.343322753906,-0.373840332031
1534595840.750.953857421875,-0.37109375,-0.002685546875,1.70135498047,0.297546386719,-0.450134277344
1534595840.750.954345703125,-0.36865234375,0.002197265625,1.65557861328,0.450134277344,-0.381469726562
1534595840.760.951904296875,-0.364990234375,0.00390625,1.49536132812,0.648498535156,-0.526428222656
1534595840.760.953125,-0.3662109375,0.001220703125,1.38092041016,0.633239746094,-0.556945800781
1534595840.760.954833984375,-0.365234375,0.002685546875,1.47247314453,0.602722167969,-0.526428222656
1534595840.760.956298828125,-0.365966796875,0.0,1.72424316406,0.694274902344,-0.442504882812
1534595840.760.954833984375,-0.36865234375,-0.000732421875,1.77001953125,0.701904296875,-0.389099121094
1534595840.760.95703125,-0.36962890625,0.002685546875,1.64794921875,0.679016113281,-0.572204589844
1534595840.760.9560546875,-0.36865234375,0.00244140625,1.64031982422,0.839233398438,-0.534057617188
1534595840.760.9541015625,-0.368896484375,0.001708984375,1.61743164062,0.839233398438,-0.328063964844
1534595840.760.95947265625,-0.3671875,0.00048828125,1.38092041016,0.755310058594,-0.297546386719
1534595840.760.95361328125,-0.367431640625,0.000244140625,1.220703125,0.801086425781,-0.450134277344
1534595840.770.95166015625,-0.3671875,0.001953125,1.37329101562,0.831604003906,-0.579833984375
1534595840.770.95458984375,-0.365234375,0.005126953125,1.70135498047,0.747680664062,-0.640869140625
1534595840.770.955322265625,-0.367919921875,0.003173828125,1.68609619141,0.518798828125,-0.732421875
1534595840.770.953857421875,-0.368896484375,0.0009765625,1.37329101562,0.48828125,-0.663757324219
1534595840.770.95068359375,-0.3671875,0.0009765625,1.23596191406,0.686645507812,-0.595092773438
1534595840.770.9521484375,-0.36962890625,-0.002197265625,1.50299072266,0.686645507812,-0.556945800781
1534595840.770.949951171875,-0.372802734375,-0.000244140625,1.60980224609,0.724792480469,-0.595092773438
1534595840.770.951171875,-0.36962890625,0.00244140625,1.51062011719,0.79345703125,-0.732421875
1534595840.770.95263671875,-0.36962890625,-0.0009765625,1.30462646484,0.8544921875,-0.694274902344
1534595840.770.950927734375,-0.368408203125,0.00048828125,1.19781494141,0.732421875,-0.518798828125
1534595840.780.9541015625,-0.367919921875,0.004150390625,1.25885009766,0.625610351562,-0.633239746094
1534595840.780.9560546875,-0.371337890625,0.000244140625,1.51824951172,0.778198242188,-0.701904296875
1534595840.780.954345703125,-0.37158203125,-0.00244140625,1.48773193359,1.01470947266,-0.572204589844
1534595840.780.9541015625,-0.372314453125,-0.000244140625,1.31225585938,0.8544921875,-0.595092773438
1534595840.780.9541015625,-0.370361328125,0.00341796875,1.19781494141,0.648498535156,-0.656127929688
1534595840.780.95556640625,-0.36865234375,0.00390625,1.48773193359,0.572204589844,-0.6103515625
1534595840.780.955810546875,-0.371826171875,-0.0009765625,1.68609619141,0.648498535156,-0.617980957031
1534595840.780.955322265625,-0.37109375,-0.001953125,1.54876708984,0.572204589844,-0.6103515625
1534595840.780.95556640625,-0.368408203125,-0.001708984375,1.45721435547,0.564575195312,-0.839233398438
1534595840.790.953369140625,-0.373046875,-0.000732421875,1.52587890625,0.434875488281,-0.587463378906
1534595840.790.95458984375,-0.368896484375,0.005126953125,1.56402587891,0.663757324219,-0.640869140625
1534595840.790.954833984375,-0.368896484375,0.0009765625,1.48010253906,0.602722167969,-0.694274902344
1534595840.790.95361328125,-0.372314453125,-0.004150390625,1.51062011719,0.747680664062,-0.556945800781
1534595840.790.952880859375,-0.36865234375,-0.001953125,1.51062011719,0.869750976562,-0.335693359375
1534595840.790.954345703125,-0.3671875,0.002685546875,1.70135498047,0.656127929688,-0.328063964844
1534595840.790.9560546875,-0.37060546875,0.003662109375,1.79290771484,0.54931640625,-0.495910644531
1534595840.790.95556640625,-0.3701171875,0.000244140625,1.54876708984,0.541687011719,-0.640869140625
1534595840.790.951904296875,-0.369140625,-0.001708984375,1.63269042969,0.679016113281,-0.541687011719
1534595840.790.9521484375,-0.371826171875,0.00244140625,1.44195556641,0.679016113281,-0.640869140625
1534595840.80.956787109375,-0.37109375,0.003173828125,1.57928466797,0.625610351562,-0.48828125
1534595840.80.955810546875,-0.3671875,0.0009765625,1.50299072266,0.404357910156,-0.457763671875
1534595840.80.95361328125,-0.36572265625,0.00048828125,1.42669677734,0.503540039062,-0.67138671875
1534595840.810.955322265625,-0.366455078125,-0.0029296875,1.60217285156,0.839233398438,-0.625610351562
1534595840.810.95849609375,-0.3671875,-0.00244140625,1.56402587891,0.526428222656,-0.526428222656
1534595840.810.956787109375,-0.36572265625,-0.002685546875,1.64794921875,0.663757324219,-0.473022460938
1534595840.810.953857421875,-0.364501953125,-0.000732421875,1.52587890625,0.732421875,-0.373840332031
1534595840.820.955322265625,-0.365966796875,0.0009765625,1.77764892578,0.717163085938,-0.312805175781
1534595840.820.952880859375,-0.366943359375,-0.00390625,1.73187255859,0.534057617188,-0.274658203125
1534595840.820.952392578125,-0.3671875,-0.001953125,1.65557861328,0.633239746094,-0.450134277344
1534595840.820.954345703125,-0.367431640625,0.001220703125,1.41143798828,0.648498535156,-0.259399414062
1534595840.820.9521484375,-0.36669921875,-0.003173828125,1.55639648438,0.389099121094,-0.160217285156
1534595840.820.9541015625,-0.3671875,-0.001220703125,1.48773193359,0.30517578125,-0.18310546875
1534595840.820.957275390625,-0.369873046875,-0.00244140625,1.39617919922,0.312805175781,-0.175476074219
1534595840.820.9580078125,-0.37158203125,-0.001220703125,1.63269042969,0.556945800781,-0.282287597656
1534595840.830.951904296875,-0.372802734375,-0.00244140625,1.79290771484,0.42724609375,-0.473022460938
1534595840.830.956298828125,-0.368408203125,0.0009765625,1.67083740234,0.205993652344,-0.541687011719
1534595840.830.953857421875,-0.36962890625,0.00048828125,1.48010253906,0.381469726562,-0.511169433594
1534595840.840.952880859375,-0.369140625,0.000244140625,1.53350830078,0.381469726562,-0.267028808594
1534595840.840.95458984375,-0.369384765625,-0.002197265625,1.24359130859,0.587463378906,-0.198364257812
1534595840.840.954345703125,-0.37158203125,-0.004638671875,1.29699707031,0.450134277344,-0.152587890625
1534595840.840.950439453125,-0.36474609375,-0.008056640625,1.35803222656,0.350952148438,-0.434875488281
1534595840.840.95263671875,-0.36767578125,-0.001953125,1.47247314453,0.572204589844,-0.350952148438
1534595840.840.956787109375,-0.36669921875,0.00390625,1.82342529297,0.602722167969,-0.350952148438
1534595840.840.956787109375,-0.364990234375,0.00048828125,1.77764892578,0.564575195312,-0.335693359375
1534595840.840.95263671875,-0.3671875,-0.000732421875,1.72424316406,0.801086425781,-0.160217285156
1534595840.850.9541015625,-0.367431640625,-0.0087890625,1.66320800781,0.625610351562,-0.267028808594
1534595840.850.954345703125,-0.3701171875,-0.0048828125,1.71661376953,0.495910644531,-0.251770019531
1534595840.850.9541015625,-0.368408203125,-0.001220703125,1.48773193359,0.541687011719,-0.137329101562
1534595840.850.95263671875,-0.367919921875,-0.001708984375,1.35803222656,0.503540039062,-0.091552734375
1534595840.850.95263671875,-0.36865234375,0.002197265625,1.41143798828,0.6103515625,-0.267028808594
1534595840.850.954833984375,-0.367431640625,-0.00146484375,1.45721435547,0.747680664062,-0.282287597656
1534595840.850.953857421875,-0.367431640625,-0.003173828125,1.49536132812,0.663757324219,-0.381469726562
1534595840.860.956787109375,-0.371826171875,0.000244140625,1.65557861328,0.503540039062,-0.30517578125
1534595840.860.9541015625,-0.36865234375,0.00048828125,1.72424316406,0.587463378906,-0.411987304688
1534595840.860.953369140625,-0.365966796875,-0.0009765625,1.67083740234,0.648498535156,-0.396728515625
1534595840.860.954833984375,-0.370849609375,0.0009765625,1.54876708984,0.617980957031,-0.480651855469
1534595840.860.95556640625,-0.369140625,0.002685546875,1.64794921875,0.633239746094,-0.503540039062
1534595840.860.953369140625,-0.36474609375,0.0009765625,1.67083740234,0.411987304688,-0.465393066406
1534595840.860.953369140625,-0.365966796875,-0.005615234375,1.60980224609,0.42724609375,-0.434875488281
1534595840.860.95654296875,-0.367919921875,-0.004638671875,1.57928466797,0.320434570312,-0.167846679688
1534595840.860.9580078125,-0.3701171875,0.00390625,1.48773193359,0.282287597656,-0.358581542969
1534595840.860.95703125,-0.36962890625,0.001953125,1.42669677734,0.335693359375,-0.457763671875
1534595840.870.953857421875,-0.368896484375,-0.001220703125,1.3427734375,0.335693359375,-0.381469726562
1534595840.870.9541015625,-0.36572265625,-0.000732421875,1.51824951172,0.404357910156,-0.3662109375
1534595840.870.956298828125,-0.36572265625,-0.003173828125,1.51824951172,0.450134277344,-0.320434570312
1534595840.870.9560546875,-0.3642578125,-0.002685546875,1.56402587891,0.6103515625,-0.404357910156
1534595840.870.953857421875,-0.362548828125,-0.005615234375,1.54113769531,0.289916992188,-0.350952148438
1534595840.870.955810546875,-0.364990234375,-0.002197265625,1.64794921875,0.350952148438,-0.0839233398438
1534595840.870.957763671875,-0.366943359375,0.000244140625,1.60217285156,0.534057617188,-0.175476074219
1534595840.870.955322265625,-0.368408203125,-0.00244140625,1.59454345703,0.572204589844,-0.411987304688
1534595840.870.95068359375,-0.366455078125,0.0029296875,1.60980224609,0.480651855469,-0.236511230469
1534595840.870.949462890625,-0.365966796875,-0.000244140625,1.82342529297,0.686645507812,-0.0839233398438
1534595840.880.953125,-0.367431640625,-0.00390625,1.77001953125,0.686645507812,-0.190734863281
1534595840.880.953857421875,-0.370849609375,0.000732421875,1.56402587891,0.480651855469,-0.3662109375
1534595840.880.952392578125,-0.3701171875,0.000244140625,1.61743164062,0.48828125,-0.30517578125
1534595840.880.955322265625,-0.36962890625,-0.001708984375,1.68609619141,0.595092773438,-0.221252441406
1534595840.880.955810546875,-0.37255859375,0.003173828125,1.69372558594,0.656127929688,-0.129699707031
1534595840.880.955322265625,-0.36962890625,0.000732421875,1.51062011719,0.740051269531,-0.381469726562
1534595840.880.953125,-0.36669921875,-0.004150390625,1.39617919922,0.633239746094,-0.465393066406
1534595840.880.950927734375,-0.36669921875,-0.00732421875,1.54876708984,0.564575195312,-0.358581542969
1534595840.880.952880859375,-0.365966796875,-0.0009765625,1.52587890625,0.473022460938,-0.282287597656
1534595840.880.952392578125,-0.36767578125,0.00830078125,1.5869140625,0.411987304688,-0.1220703125
1534595840.890.953125,-0.3701171875,0.001953125,1.51062011719,0.42724609375,-0.190734863281
1534595840.890.953125,-0.3701171875,-0.001953125,1.5869140625,0.679016113281,-0.205993652344
1534595840.890.954833984375,-0.3701171875,-0.0048828125,1.51824951172,0.541687011719,-0.396728515625
1534595840.890.955078125,-0.36865234375,-0.0029296875,1.45721435547,0.3662109375,-0.381469726562
1534595840.890.95166015625,-0.369873046875,0.001953125,1.42669677734,0.289916992188,-0.511169433594
1534595840.890.953125,-0.37060546875,-0.002685546875,1.5869140625,0.450134277344,-0.434875488281
1534595840.890.95849609375,-0.3701171875,-0.00146484375,1.68609619141,0.42724609375,-0.396728515625
1534595840.890.956787109375,-0.371826171875,0.00732421875,1.57928466797,0.54931640625,-0.457763671875
1534595840.890.954833984375,-0.372314453125,0.00732421875,1.60980224609,0.350952148438,-0.381469726562
1534595840.890.953857421875,-0.37109375,0.0029296875,1.54113769531,0.328063964844,-0.473022460938
1534595840.90.9521484375,-0.369384765625,-0.00146484375,1.53350830078,0.503540039062,-0.541687011719
1534595840.90.955078125,-0.369140625,-0.0029296875,1.53350830078,0.709533691406,-0.572204589844
1534595840.90.9560546875,-0.369140625,0.001953125,1.68609619141,0.724792480469,-0.480651855469
1534595840.90.954345703125,-0.36767578125,0.000732421875,1.64794921875,0.617980957031,-0.244140625
1534595840.90.951904296875,-0.3701171875,-0.0009765625,1.64031982422,0.602722167969,-0.358581542969
1534595840.90.95361328125,-0.371826171875,-0.0029296875,1.55639648438,0.732421875,-0.442504882812
1534595840.90.95458984375,-0.36962890625,-0.005615234375,1.31225585938,0.6103515625,-0.602722167969
1534595840.90.9521484375,-0.368896484375,-0.00439453125,1.38854980469,0.480651855469,-0.411987304688
1534595840.90.951904296875,-0.369140625,-0.006591796875,1.54113769531,0.541687011719,-0.282287597656
1534595840.90.9521484375,-0.370849609375,-0.00830078125,1.41906738281,0.541687011719,-0.190734863281
1534595840.910.953125,-0.37158203125,-0.004150390625,1.30462646484,0.602722167969,-0.320434570312
1534595840.910.952392578125,-0.370849609375,-0.00390625,1.50299072266,0.534057617188,-0.526428222656
1534595840.910.95458984375,-0.371337890625,-0.004150390625,1.41906738281,0.396728515625,-0.54931640625
1534595840.910.9541015625,-0.37060546875,0.001708984375,1.51824951172,0.42724609375,-0.640869140625
1534595840.910.95263671875,-0.366943359375,-0.00048828125,1.51062011719,0.450134277344,-0.511169433594
1534595840.910.95703125,-0.36572265625,-0.004638671875,1.5869140625,0.579833984375,-0.572204589844
1534595840.910.956787109375,-0.3681640625,0.00048828125,1.51062011719,0.67138671875,-0.473022460938
1534595840.910.9521484375,-0.369384765625,0.00537109375,1.51062011719,0.663757324219,-0.480651855469
1534595840.910.950927734375,-0.367431640625,0.0,1.51824951172,0.709533691406,-0.617980957031
1534595840.910.953125,-0.36767578125,-0.0048828125,1.53350830078,0.79345703125,-0.732421875
1534595840.920.95556640625,-0.368408203125,-0.007080078125,1.49536132812,0.885009765625,-0.862121582031
1534595840.920.956787109375,-0.364501953125,-0.010498046875,1.59454345703,1.02996826172,-0.747680664062
1534595840.920.95458984375,-0.366455078125,-0.0068359375,1.28173828125,0.9765625,-0.732421875
1534595840.920.95458984375,-0.368896484375,-0.000732421875,1.39617919922,0.679016113281,-0.717163085938
1534595840.920.95361328125,-0.370361328125,-0.00146484375,1.54876708984,0.572204589844,-0.67138671875
1534595840.920.95556640625,-0.371826171875,-0.002197265625,1.56402587891,0.511169433594,-0.679016113281
1534595840.920.957275390625,-0.370361328125,-0.00439453125,1.50299072266,0.679016113281,-0.747680664062
1534595840.920.953857421875,-0.368896484375,-0.002197265625,1.25885009766,0.755310058594,-0.740051269531
1534595840.920.95166015625,-0.368896484375,-0.001953125,1.28173828125,0.778198242188,-0.633239746094
1534595840.920.951171875,-0.3720703125,-0.001953125,1.36566162109,0.694274902344,-0.434875488281
1534595840.930.953857421875,-0.37060546875,0.001220703125,1.31988525391,0.770568847656,-0.48828125
1534595840.930.955810546875,-0.368408203125,0.003662109375,1.51062011719,0.79345703125,-0.663757324219
1534595840.930.955810546875,-0.3671875,0.005615234375,1.59454345703,0.595092773438,-0.556945800781
1534595840.930.95361328125,-0.366455078125,0.00341796875,1.59454345703,0.663757324219,-0.587463378906
1534595840.930.955078125,-0.37060546875,0.002197265625,1.44958496094,0.762939453125,-0.572204589844
1534595840.930.953369140625,-0.372314453125,0.002685546875,1.47247314453,0.648498535156,-0.389099121094
1534595840.930.953125,-0.368896484375,0.003662109375,1.56402587891,0.358581542969,-0.297546386719
1534595840.930.9560546875,-0.367919921875,0.001953125,1.51062011719,0.350952148438,-0.297546386719
1534595840.930.953125,-0.36865234375,0.000732421875,1.45721435547,0.709533691406,-0.343322753906
1534595840.930.95263671875,-0.367919921875,-0.0048828125,1.46484375,0.8544921875,-0.198364257812
1534595840.940.95166015625,-0.365966796875,-0.008544921875,1.57928466797,0.762939453125,-0.129699707031
1534595840.940.951904296875,-0.365478515625,-0.00634765625,1.71661376953,0.640869140625,-0.18310546875
1534595840.940.9541015625,-0.367431640625,-0.0048828125,1.65557861328,0.442504882812,-0.18310546875
1534595840.940.95458984375,-0.370361328125,-0.004150390625,1.50299072266,0.526428222656,-0.190734863281
1534595840.940.957275390625,-0.369384765625,-0.00048828125,1.61743164062,0.663757324219,-0.267028808594
1534595840.940.9560546875,-0.366455078125,0.001953125,1.72424316406,0.556945800781,-0.259399414062
1534595840.940.956298828125,-0.368896484375,0.0,1.42669677734,0.663757324219,-0.259399414062
1534595840.940.9580078125,-0.37109375,-0.00244140625,1.37329101562,0.724792480469,-0.274658203125
1534595840.940.9541015625,-0.369873046875,-0.001953125,1.63269042969,0.503540039062,-0.160217285156
1534595840.940.953857421875,-0.36865234375,0.001220703125,1.64031982422,0.373840332031,-0.267028808594
1534595840.940.953857421875,-0.366943359375,0.001708984375,1.60217285156,0.289916992188,-0.350952148438
1534595840.950.954345703125,-0.366943359375,0.000244140625,1.48773193359,0.137329101562,-0.236511230469
1534595840.950.955322265625,-0.36572265625,0.00048828125,1.38092041016,0.198364257812,-0.350952148438
1534595840.950.954833984375,-0.365478515625,0.00439453125,1.46484375,0.282287597656,-0.1220703125
1534595840.950.9541015625,-0.3671875,0.00244140625,1.37329101562,0.335693359375,-0.129699707031
1534595840.950.954833984375,-0.3642578125,-0.000732421875,1.47247314453,0.30517578125,-0.106811523438
1534595840.950.95703125,-0.3623046875,0.001220703125,1.52587890625,0.48828125,-0.236511230469
1534595840.950.95556640625,-0.36572265625,-0.0048828125,1.46484375,0.778198242188,-0.411987304688
1534595840.950.95556640625,-0.37158203125,-0.0068359375,1.49536132812,0.579833984375,-0.419616699219
1534595840.950.956787109375,-0.37060546875,-0.0048828125,1.53350830078,0.251770019531,-0.572204589844
1534595840.960.95458984375,-0.367431640625,-0.005126953125,1.79290771484,0.511169433594,-0.396728515625
1534595840.960.955078125,-0.36376953125,-0.00439453125,1.52587890625,0.999450683594,-0.595092773438
1534595840.970.9521484375,-0.365966796875,-0.00244140625,1.57928466797,0.816345214844,-0.503540039062
1534595840.970.9501953125,-0.3671875,-0.004638671875,1.53350830078,0.755310058594,-0.495910644531
1534595840.970.95166015625,-0.374267578125,0.00146484375,1.79290771484,0.801086425781,-0.6103515625
1534595840.970.956298828125,-0.37109375,0.007080078125,1.50299072266,0.762939453125,-0.587463378906
1534595840.970.951416015625,-0.367919921875,0.0009765625,1.60217285156,0.54931640625,-0.633239746094
1534595840.980.951416015625,-0.3681640625,-0.00244140625,1.64794921875,0.42724609375,-0.48828125
1534595840.980.95263671875,-0.368408203125,-0.005615234375,1.38092041016,0.534057617188,-0.404357910156
1534595840.980.953369140625,-0.36767578125,-0.007080078125,1.41906738281,0.747680664062,-0.434875488281
1534595840.980.952880859375,-0.366943359375,0.000732421875,1.44195556641,0.556945800781,-0.54931640625
1534595840.980.951904296875,-0.364501953125,0.000244140625,1.51824951172,0.572204589844,-0.564575195312
1534595840.980.950439453125,-0.364990234375,0.0009765625,1.38092041016,0.595092773438,-0.633239746094
1534595840.980.951904296875,-0.367919921875,0.002197265625,1.46484375,0.617980957031,-0.473022460938
1534595840.980.9521484375,-0.3720703125,-0.001220703125,1.53350830078,0.640869140625,-0.640869140625
1534595840.990.952392578125,-0.366943359375,-0.001220703125,1.63269042969,0.434875488281,-0.534057617188
1534595840.990.954345703125,-0.3681640625,0.002197265625,1.30462646484,0.656127929688,-0.511169433594
1534595840.990.953125,-0.3681640625,0.004638671875,1.55639648438,0.595092773438,-0.373840332031
1534595840.990.9541015625,-0.36865234375,0.00048828125,1.59454345703,0.633239746094,-0.297546386719
1534595841.00.952880859375,-0.366943359375,0.001708984375,1.52587890625,0.717163085938,-0.495910644531
1534595841.00.953857421875,-0.364990234375,-0.0048828125,1.44958496094,0.595092773438,-0.663757324219
1534595841.00.952880859375,-0.371826171875,-0.003173828125,1.59454345703,0.450134277344,-0.511169433594
1534595841.00.956787109375,-0.368896484375,-0.000244140625,1.55639648438,0.320434570312,-0.572204589844
1534595841.00.95703125,-0.37060546875,0.002197265625,1.38854980469,0.67138671875,-0.442504882812
1534595841.00.9541015625,-0.369384765625,0.004150390625,1.60217285156,0.709533691406,-0.579833984375
1534595841.010.9541015625,-0.367431640625,0.000244140625,1.57165527344,0.617980957031,-0.396728515625
1534595841.010.95361328125,-0.36669921875,-0.00048828125,1.59454345703,0.732421875,-0.358581542969
1534595841.010.95458984375,-0.368896484375,0.001953125,1.72424316406,0.709533691406,-0.396728515625
1534595841.010.95458984375,-0.366943359375,0.0048828125,1.48010253906,0.740051269531,-0.625610351562
1534595841.010.95703125,-0.3671875,-0.00341796875,1.28173828125,0.694274902344,-0.747680664062
1534595841.010.953125,-0.369384765625,-0.004150390625,1.42669677734,0.724792480469,-0.457763671875
1534595841.010.950927734375,-0.367919921875,-0.004150390625,1.42669677734,0.79345703125,-0.236511230469
1534595841.010.952392578125,-0.366455078125,-0.003173828125,1.36566162109,0.762939453125,-0.350952148438
1534595841.020.954833984375,-0.366943359375,-0.00634765625,1.51824951172,0.694274902344,-0.572204589844
1534595841.020.9560546875,-0.367431640625,-0.007080078125,1.70135498047,0.595092773438,-0.457763671875
1534595841.020.955322265625,-0.369873046875,-0.006591796875,1.57165527344,0.434875488281,-0.518798828125
1534595841.020.95556640625,-0.367919921875,-0.001220703125,1.46484375,0.434875488281,-0.663757324219
1534595841.020.954345703125,-0.36865234375,0.005859375,1.43432617188,0.419616699219,-0.633239746094
1534595841.020.954345703125,-0.369384765625,0.002685546875,1.51824951172,0.595092773438,-0.503540039062
1534595841.020.956787109375,-0.367919921875,-0.001220703125,1.61743164062,0.67138671875,-0.396728515625
1534595841.020.953125,-0.368896484375,-0.00146484375,1.66320800781,0.526428222656,-0.213623046875
1534595841.020.951416015625,-0.366455078125,-0.00439453125,1.54876708984,0.198364257812,-0.106811523438
1534595841.020.957763671875,-0.364990234375,-0.00439453125,1.48773193359,0.228881835938,-0.335693359375
1534595841.030.95751953125,-0.3642578125,0.0048828125,1.38092041016,0.518798828125,-0.579833984375
1534595841.030.954833984375,-0.36328125,0.005126953125,1.48010253906,0.686645507812,-0.526428222656
1534595841.030.956298828125,-0.365478515625,0.001953125,1.48773193359,0.518798828125,-0.297546386719
1534595841.030.953369140625,-0.36767578125,0.001708984375,1.57928466797,0.282287597656,-0.0534057617188
1534595841.030.953369140625,-0.36474609375,0.001220703125,1.57165527344,0.518798828125,0.0457763671875
1534595841.030.957763671875,-0.36572265625,0.005126953125,1.60217285156,0.579833984375,-0.00762939453125
1534595841.030.9541015625,-0.370849609375,0.00244140625,1.73950195312,0.534057617188,-0.137329101562
1534595841.030.95068359375,-0.369384765625,-0.00146484375,1.61743164062,0.343322753906,-0.221252441406
1534595841.030.953857421875,-0.366455078125,-0.00146484375,1.53350830078,0.350952148438,-0.198364257812
1534595841.030.957763671875,-0.365478515625,-0.001953125,1.67846679688,0.30517578125,-0.129699707031
1534595841.030.95703125,-0.36767578125,0.00244140625,1.83868408203,0.389099121094,-0.030517578125
1534595841.040.956787109375,-0.370849609375,0.002685546875,1.64031982422,0.373840332031,-0.0762939453125
1534595841.040.9560546875,-0.369384765625,-0.003173828125,1.44958496094,0.495910644531,-0.129699707031
1534595841.040.953857421875,-0.367431640625,-0.0048828125,1.39617919922,0.434875488281,0.0228881835938
1534595841.040.954345703125,-0.368896484375,-0.004150390625,1.36566162109,0.091552734375,0.0
1534595841.040.95556640625,-0.368896484375,0.00146484375,1.36566162109,0.0457763671875,0.030517578125
1534595841.040.954833984375,-0.36767578125,0.000732421875,1.46484375,0.091552734375,-0.0534057617188
1534595841.040.951904296875,-0.368896484375,-0.00341796875,1.42669677734,-0.114440917969,-0.0762939453125
1534595841.040.95263671875,-0.3701171875,0.003173828125,1.59454345703,0.0534057617188,-0.152587890625
1534595841.040.9541015625,-0.36962890625,0.00830078125,1.60217285156,0.373840332031,0.0381469726562
1534595841.040.95263671875,-0.3671875,-0.0009765625,1.41906738281,0.259399414062,-0.106811523438
1534595841.050.95263671875,-0.365966796875,-0.009033203125,1.38092041016,0.152587890625,-0.106811523438
1534595841.050.953857421875,-0.366455078125,-0.0009765625,1.43432617188,0.190734863281,-0.0991821289062
1534595841.050.955078125,-0.36669921875,0.00146484375,1.41143798828,0.152587890625,-0.144958496094
1534595841.050.954833984375,-0.367919921875,-0.00341796875,1.46484375,0.167846679688,-0.0534057617188
1534595841.050.953125,-0.368408203125,0.00048828125,1.68609619141,-0.030517578125,0.00762939453125
1534595841.050.952880859375,-0.3720703125,0.00439453125,1.49536132812,0.114440917969,-0.091552734375
1534595841.050.955078125,-0.373046875,0.0048828125,1.37329101562,0.373840332031,-0.160217285156
1534595841.050.957275390625,-0.369140625,0.0029296875,1.39617919922,0.350952148438,-0.213623046875
1534595841.050.955322265625,-0.367919921875,0.000244140625,1.43432617188,0.198364257812,-0.144958496094
1534595841.050.956298828125,-0.368408203125,-0.003662109375,1.50299072266,0.244140625,0.06103515625
1534595841.060.95654296875,-0.36865234375,-0.003662109375,1.57928466797,0.358581542969,-0.152587890625
1534595841.060.954345703125,-0.369140625,-0.001708984375,1.35803222656,0.396728515625,-0.312805175781
1534595841.060.95263671875,-0.37158203125,-0.00439453125,1.42669677734,0.450134277344,-0.381469726562
1534595841.060.951171875,-0.372314453125,-0.001953125,1.46484375,0.579833984375,-0.152587890625
1534595841.060.95263671875,-0.371337890625,-0.002685546875,1.36566162109,0.48828125,-0.030517578125
1534595841.060.952880859375,-0.3701171875,-0.00439453125,1.53350830078,0.213623046875,-0.0991821289062
1534595841.060.951904296875,-0.36962890625,-0.00048828125,1.36566162109,0.228881835938,-0.358581542969
1534595841.060.95263671875,-0.3720703125,-0.002197265625,1.36566162109,0.450134277344,-0.30517578125
1534595841.060.95361328125,-0.37060546875,-0.0078125,1.72424316406,0.740051269531,-0.312805175781
1534595841.060.955078125,-0.3671875,-0.007568359375,1.74713134766,0.869750976562,-0.343322753906
1534595841.070.9560546875,-0.3701171875,-0.00341796875,1.74713134766,0.701904296875,-0.328063964844
1534595841.070.95751953125,-0.36962890625,-0.0029296875,1.56402587891,0.778198242188,-0.396728515625
1534595841.070.956787109375,-0.368896484375,-0.00048828125,1.37329101562,0.541687011719,-0.358581542969
1534595841.070.95361328125,-0.369140625,-0.000732421875,1.51824951172,0.595092773438,-0.457763671875
1534595841.070.955078125,-0.36865234375,-0.0009765625,1.60217285156,0.709533691406,-0.312805175781
1534595841.070.95556640625,-0.37109375,0.00048828125,1.64031982422,0.862121582031,-0.404357910156
1534595841.070.955078125,-0.37109375,0.0,1.60980224609,0.778198242188,-0.259399414062
1534595841.070.955322265625,-0.369873046875,0.002197265625,1.77001953125,0.625610351562,-0.457763671875
1534595841.070.951416015625,-0.369873046875,0.003662109375,1.72424316406,0.572204589844,-0.541687011719
1534595841.070.94921875,-0.36865234375,-0.002685546875,1.50299072266,0.625610351562,-0.526428222656
1534595841.080.9521484375,-0.36669921875,-0.00732421875,1.54876708984,0.473022460938,-0.579833984375
1534595841.080.954833984375,-0.368896484375,-0.00390625,1.66320800781,0.518798828125,-0.831604003906
1534595841.080.951416015625,-0.37060546875,0.001220703125,1.67846679688,0.625610351562,-0.656127929688
1534595841.080.951171875,-0.36767578125,0.001220703125,1.59454345703,0.839233398438,-0.770568847656
1534595841.080.9541015625,-0.36474609375,-0.00048828125,1.51824951172,0.877380371094,-0.923156738281
1534595841.080.952880859375,-0.366943359375,0.00341796875,1.41906738281,0.717163085938,-0.747680664062
1534595841.080.95263671875,-0.369384765625,0.00048828125,1.57165527344,0.770568847656,-0.54931640625
1534595841.080.955078125,-0.37060546875,-0.003173828125,1.83868408203,0.846862792969,-0.679016113281
1534595841.080.94970703125,-0.368408203125,0.000732421875,1.61743164062,0.724792480469,-0.54931640625
1534595841.080.95068359375,-0.3671875,0.00537109375,1.55639648438,0.572204589844,-0.450134277344
1534595841.090.949951171875,-0.3671875,0.004638671875,1.65557861328,0.839233398438,-0.457763671875
1534595841.090.949462890625,-0.365966796875,-0.001220703125,1.8310546875,0.709533691406,-0.617980957031
1534595841.090.952392578125,-0.366943359375,-0.004150390625,1.88446044922,0.442504882812,-0.663757324219
1534595841.090.953125,-0.37109375,0.00244140625,1.70135498047,0.541687011719,-0.579833984375
1534595841.090.95458984375,-0.3701171875,0.00244140625,1.61743164062,0.762939453125,-0.442504882812
1534595841.090.951416015625,-0.36767578125,-0.001953125,1.57928466797,0.801086425781,-0.518798828125
1534595841.090.949951171875,-0.367919921875,-0.000244140625,1.60980224609,0.579833984375,-0.579833984375
1534595841.090.9521484375,-0.365478515625,0.001220703125,1.64031982422,0.541687011719,-0.54931640625
1534595841.090.9521484375,-0.365478515625,0.001220703125,1.63269042969,0.511169433594,-0.511169433594
1534595841.090.954345703125,-0.365966796875,0.00048828125,1.63269042969,0.213623046875,-0.335693359375
1534595841.10.95458984375,-0.369873046875,-0.00146484375,1.71661376953,0.457763671875,-0.167846679688
1534595841.10.955322265625,-0.369873046875,-0.0029296875,1.60217285156,0.541687011719,-0.221252441406
1534595841.10.957275390625,-0.369384765625,-0.00244140625,1.61743164062,0.389099121094,-0.404357910156
1534595841.10.954833984375,-0.367431640625,-0.00244140625,1.53350830078,0.640869140625,-0.335693359375
1534595841.10.954345703125,-0.3671875,-0.00439453125,1.60217285156,0.663757324219,-0.0762939453125
1534595841.10.956298828125,-0.36767578125,-0.006591796875,1.64031982422,0.686645507812,-0.251770019531
1534595841.10.9560546875,-0.368408203125,-0.006103515625,1.55639648438,0.640869140625,-0.411987304688
1534595841.10.953857421875,-0.37060546875,-0.005615234375,1.67846679688,0.419616699219,-0.526428222656
1534595841.110.9501953125,-0.36962890625,0.000732421875,1.66320800781,0.42724609375,0.0152587890625
1534595841.120.955810546875,-0.365234375,-0.001708984375,1.64031982422,0.335693359375,-0.389099121094
1534595841.120.956298828125,-0.3671875,-0.000244140625,1.57165527344,0.3662109375,-0.106811523438
1534595841.120.953125,-0.369873046875,0.001953125,1.54876708984,0.373840332031,-0.18310546875
1534595841.120.95166015625,-0.367919921875,-0.0048828125,1.90734863281,0.434875488281,-0.144958496094
1534595841.120.951416015625,-0.3662109375,-0.003662109375,1.85394287109,0.335693359375,-0.114440917969
1534595841.120.95361328125,-0.369140625,0.00048828125,1.75476074219,0.42724609375,-0.137329101562
1534595841.120.9560546875,-0.372802734375,0.00146484375,1.55639648438,0.404357910156,-0.267028808594
1534595841.120.95703125,-0.37060546875,0.0,1.41143798828,0.3662109375,-0.358581542969
1534595841.130.957763671875,-0.371337890625,0.002197265625,1.50299072266,0.373840332031,-0.297546386719
1534595841.130.955322265625,-0.3671875,0.004150390625,1.40380859375,0.495910644531,-0.213623046875
1534595841.130.949462890625,-0.36767578125,0.003173828125,1.61743164062,0.350952148438,-0.274658203125
1534595841.130.94873046875,-0.369140625,0.002197265625,1.68609619141,0.442504882812,-0.282287597656
1534595841.130.953125,-0.3662109375,-0.001220703125,1.67846679688,0.282287597656,-0.205993652344
1534595841.130.951171875,-0.373046875,0.004150390625,1.60980224609,0.259399414062,-0.328063964844
1534595841.140.953369140625,-0.371337890625,-0.000244140625,1.36566162109,0.42724609375,-0.511169433594
1534595841.140.951904296875,-0.371337890625,-0.005615234375,1.60217285156,0.816345214844,-0.3662109375
1534595841.140.950439453125,-0.37158203125,-0.00244140625,1.78527832031,0.831604003906,-0.541687011719
1534595841.140.959228515625,-0.36767578125,-0.004638671875,1.65557861328,0.679016113281,-0.785827636719
1534595841.140.955078125,-0.3681640625,-0.0029296875,1.36566162109,0.740051269531,-0.541687011719
1534595841.140.95263671875,-0.37060546875,-0.006103515625,1.57165527344,1.06811523438,-0.343322753906
1534595841.140.95263671875,-0.371826171875,-0.0078125,1.72424316406,0.946044921875,-0.579833984375
1534595841.150.954345703125,-0.3701171875,-0.0068359375,1.89971923828,0.816345214844,-0.579833984375
1534595841.150.952392578125,-0.37060546875,0.005126953125,1.75476074219,0.862121582031,-0.587463378906
1534595841.150.952392578125,-0.370849609375,-0.00146484375,1.57165527344,0.946044921875,-0.633239746094
1534595841.150.949462890625,-0.369384765625,0.001220703125,1.57928466797,1.02996826172,-0.579833984375
1534595841.150.9521484375,-0.366455078125,-0.004638671875,1.60980224609,0.839233398438,-0.579833984375
1534595841.150.960205078125,-0.36865234375,-0.000732421875,1.42669677734,0.633239746094,-0.701904296875
1534595841.160.959228515625,-0.37060546875,0.004150390625,1.57928466797,1.15203857422,-0.885009765625
1534595841.160.955322265625,-0.369384765625,-0.00048828125,1.59454345703,0.999450683594,-1.01470947266
