CSV format: Accelerometer x value, acclerometer y value, accelerometer z value, gyroscope x value, gyroscope y value, gyroscope z value
Sample frequency: 100Hz
1534602999.390.973876953125,-0.2861328125,0.134521484375,1.68609619141,0.877380371094,-1.07574462891
1534602999.390.9736328125,-0.285888671875,0.140625,1.52587890625,0.991821289062,-1.03759765625
1534602999.390.97119140625,-0.2890625,0.135498046875,1.33514404297,1.20544433594,-1.07574462891
1534602999.390.9755859375,-0.28857421875,0.13671875,1.37329101562,1.10626220703,-1.15966796875
1534602999.40.97509765625,-0.286865234375,0.1337890625,1.72424316406,1.26647949219,-0.831604003906
1534602999.40.97216796875,-0.284912109375,0.1396484375,1.48773193359,0.862121582031,-0.747680664062
1534602999.40.97607421875,-0.28564453125,0.135498046875,1.52587890625,1.17492675781,-0.640869140625
1534602999.40.969970703125,-0.287353515625,0.138916015625,1.708984375,1.06048583984,-0.633239746094
1534602999.410.97119140625,-0.2861328125,0.138427734375,1.56402587891,0.785827636719,-0.389099121094
1534602999.410.972900390625,-0.283447265625,0.140869140625,1.44958496094,0.450134277344,-0.648498535156
1534602999.410.96875,-0.287353515625,0.145263671875,1.35040283203,0.656127929688,-0.633239746094
1534602999.420.9716796875,-0.285400390625,0.137939453125,1.57165527344,0.0152587890625,0.0228881835938
1534602999.420.970458984375,-0.284912109375,0.133056640625,1.25122070312,0.144958496094,0.0457763671875
1534602999.430.97509765625,-0.28564453125,0.132568359375,1.35040283203,0.167846679688,0.236511230469
1534602999.430.974853515625,-0.285400390625,0.130859375,1.52587890625,0.297546386719,0.213623046875
1534602999.430.974853515625,-0.2861328125,0.137451171875,1.60217285156,-0.175476074219,0.205993652344
1534602999.430.97412109375,-0.288330078125,0.138916015625,1.54876708984,-0.190734863281,0.267028808594
1534602999.430.97412109375,-0.285888671875,0.13916015625,1.59454345703,0.091552734375,0.137329101562
1534602999.430.97705078125,-0.286865234375,0.138671875,1.82342529297,-0.06103515625,0.0534057617188
1534602999.440.97265625,-0.28662109375,0.14306640625,1.49536132812,0.213623046875,0.144958496094
1534602999.440.972900390625,-0.288818359375,0.1376953125,1.54876708984,0.335693359375,0.259399414062
1534602999.440.97509765625,-0.2861328125,0.138916015625,1.57165527344,0.274658203125,-0.0152587890625
1534602999.440.97412109375,-0.28857421875,0.138916015625,1.30462646484,0.297546386719,0.0152587890625
1534602999.440.974609375,-0.290283203125,0.135498046875,1.51824951172,0.18310546875,-0.267028808594
1534602999.450.974853515625,-0.287841796875,0.1416015625,1.5869140625,0.358581542969,-0.381469726562
1534602999.450.97216796875,-0.288330078125,0.135498046875,1.45721435547,0.289916992188,-0.419616699219
1534602999.450.975341796875,-0.287353515625,0.13037109375,1.25122070312,0.320434570312,-0.198364257812
1534602999.450.97265625,-0.288818359375,0.13134765625,1.59454345703,0.663757324219,-0.30517578125
1534602999.450.9716796875,-0.29248046875,0.134521484375,1.47247314453,0.411987304688,-0.373840332031
1534602999.450.970947265625,-0.290771484375,0.13671875,1.43432617188,0.579833984375,-0.404357910156
1534602999.460.970947265625,-0.28759765625,0.142578125,1.44195556641,0.785827636719,-0.503540039062
1534602999.460.97265625,-0.28857421875,0.13916015625,1.60217285156,0.999450683594,-0.358581542969
1534602999.460.96923828125,-0.2890625,0.1396484375,1.708984375,0.3662109375,-0.358581542969
1534602999.470.9736328125,-0.2939453125,0.138427734375,1.44958496094,0.8544921875,-0.473022460938
1534602999.470.970703125,-0.287841796875,0.133544921875,1.68609619141,0.67138671875,-0.30517578125
1534602999.470.97314453125,-0.2880859375,0.141357421875,1.65557861328,0.495910644531,-0.518798828125
1534602999.470.9736328125,-0.291015625,0.142333984375,1.50299072266,0.572204589844,-0.320434570312
1534602999.470.971923828125,-0.29052734375,0.141845703125,1.48773193359,0.541687011719,-0.419616699219
1534602999.480.971923828125,-0.2880859375,0.139404296875,1.64031982422,0.526428222656,-0.457763671875
1534602999.480.971923828125,-0.286865234375,0.136962890625,1.51824951172,0.579833984375,-0.54931640625
1534602999.480.97314453125,-0.286865234375,0.14306640625,1.62506103516,0.42724609375,-0.244140625
1534602999.480.97265625,-0.292724609375,0.144287109375,1.54113769531,0.480651855469,-0.251770019531
1534602999.480.974853515625,-0.292236328125,0.1416015625,1.62506103516,0.450134277344,-0.465393066406
1534602999.490.974853515625,-0.289794921875,0.140869140625,1.72424316406,0.587463378906,-0.42724609375
1534602999.490.972900390625,-0.290771484375,0.13623046875,1.68609619141,0.526428222656,-0.495910644531
1534602999.490.96875,-0.290283203125,0.140380859375,1.3427734375,0.42724609375,-0.289916992188
1534602999.490.969482421875,-0.29052734375,0.141845703125,1.25122070312,0.450134277344,-0.480651855469
1534602999.490.9716796875,-0.291748046875,0.1396484375,1.53350830078,0.3662109375,-0.411987304688
1534602999.490.975830078125,-0.292236328125,0.140869140625,1.55639648438,0.465393066406,-0.396728515625
1534602999.50.9716796875,-0.29052734375,0.13720703125,1.33514404297,0.450134277344,-0.282287597656
1534602999.50.972412109375,-0.29296875,0.142822265625,1.48010253906,0.48828125,-0.396728515625
1534602999.50.975341796875,-0.291015625,0.14404296875,1.5869140625,0.762939453125,-0.350952148438
1534602999.50.972900390625,-0.28662109375,0.140380859375,1.64031982422,0.640869140625,-0.503540039062
1534602999.50.972900390625,-0.291259765625,0.13818359375,1.62506103516,0.648498535156,-0.534057617188
1534602999.50.9716796875,-0.2919921875,0.1376953125,1.708984375,0.778198242188,-0.701904296875
1534602999.50.976318359375,-0.282958984375,0.140625,1.41906738281,0.701904296875,-0.595092773438
1534602999.510.976318359375,-0.287353515625,0.135986328125,1.45721435547,0.755310058594,-0.556945800781
1534602999.510.9775390625,-0.288818359375,0.131591796875,1.62506103516,0.938415527344,-0.450134277344
1534602999.510.972412109375,-0.287841796875,0.137451171875,1.62506103516,0.572204589844,-0.534057617188
1534602999.510.969482421875,-0.284912109375,0.14111328125,1.5869140625,0.595092773438,-0.457763671875
1534602999.510.97216796875,-0.284423828125,0.139404296875,1.48010253906,0.923156738281,-0.518798828125
1534602999.510.97314453125,-0.2880859375,0.13720703125,1.49536132812,0.885009765625,-0.679016113281
1534602999.510.97607421875,-0.28857421875,0.137451171875,1.46484375,0.885009765625,-0.869750976562
1534602999.510.975341796875,-0.2890625,0.13720703125,1.36566162109,0.869750976562,-0.900268554688
1534602999.520.97021484375,-0.285888671875,0.13916015625,1.59454345703,0.846862792969,-0.633239746094
1534602999.520.974609375,-0.283203125,0.134765625,1.47247314453,0.6103515625,-0.701904296875
1534602999.520.97265625,-0.288330078125,0.133544921875,1.41143798828,0.930786132812,-0.633239746094
1534602999.520.971923828125,-0.286865234375,0.13916015625,1.30462646484,1.04522705078,-0.724792480469
1534602999.520.9736328125,-0.286376953125,0.142333984375,1.53350830078,0.938415527344,-0.755310058594
1534602999.520.970458984375,-0.28466796875,0.140625,1.55639648438,0.923156738281,-0.656127929688
1534602999.520.969482421875,-0.28466796875,0.1416015625,1.46484375,0.801086425781,-0.740051269531
1534602999.530.97216796875,-0.284912109375,0.143798828125,1.51062011719,0.801086425781,-0.755310058594
1534602999.530.97412109375,-0.282470703125,0.13916015625,1.74713134766,0.930786132812,-0.762939453125
1534602999.530.9755859375,-0.2861328125,0.137939453125,1.60980224609,0.846862792969,-0.991821289062
1534602999.530.97265625,-0.28662109375,0.13916015625,1.32751464844,0.823974609375,-0.892639160156
1534602999.530.974609375,-0.282958984375,0.13916015625,1.35803222656,0.91552734375,-1.01470947266
1534602999.530.975830078125,-0.28173828125,0.140380859375,1.46484375,1.04522705078,-0.724792480469
1534602999.530.970458984375,-0.283447265625,0.134033203125,1.63269042969,0.839233398438,-0.717163085938
1534602999.530.972900390625,-0.28173828125,0.135498046875,1.72424316406,0.900268554688,-0.831604003906
1534602999.540.9755859375,-0.283447265625,0.13623046875,1.54876708984,0.9765625,-0.823974609375
1534602999.540.974609375,-0.2861328125,0.138916015625,1.39617919922,0.946044921875,-0.923156738281
1534602999.540.970703125,-0.283203125,0.140625,1.52587890625,1.08337402344,-0.67138671875
1534602999.540.97509765625,-0.28173828125,0.14208984375,1.67083740234,1.01470947266,-0.663757324219
1534602999.540.97802734375,-0.28271484375,0.137451171875,1.62506103516,0.953674316406,-0.755310058594
1534602999.540.97705078125,-0.28076171875,0.1337890625,1.53350830078,0.648498535156,-0.839233398438
1534602999.540.9736328125,-0.28466796875,0.136474609375,1.51062011719,0.67138671875,-0.686645507812
1534602999.540.974853515625,-0.286376953125,0.13427734375,1.45721435547,0.869750976562,-0.755310058594
1534602999.550.976806640625,-0.28662109375,0.132080078125,1.708984375,0.946044921875,-0.823974609375
1534602999.550.976318359375,-0.28369140625,0.136474609375,1.68609619141,0.762939453125,-0.740051269531
1534602999.550.974609375,-0.282470703125,0.1416015625,1.63269042969,0.511169433594,-0.740051269531
1534602999.550.974365234375,-0.2822265625,0.13232421875,1.64794921875,0.862121582031,-0.602722167969
1534602999.550.97607421875,-0.28564453125,0.13037109375,1.68609619141,0.79345703125,-0.42724609375
1534602999.550.973876953125,-0.28173828125,0.134765625,1.79290771484,0.8544921875,-0.54931640625
1534602999.550.974365234375,-0.285888671875,0.1396484375,1.40380859375,0.465393066406,-0.633239746094
1534602999.550.97607421875,-0.2841796875,0.138916015625,1.54876708984,0.48828125,-0.404357910156
1534602999.550.975830078125,-0.282470703125,0.13427734375,1.72424316406,0.541687011719,-0.175476074219
1534602999.560.97509765625,-0.28515625,0.134033203125,1.74713134766,0.511169433594,-0.129699707031
1534602999.560.97900390625,-0.287353515625,0.139404296875,1.38854980469,0.717163085938,-0.114440917969
1534602999.560.9765625,-0.288330078125,0.136962890625,1.55639648438,0.312805175781,-0.160217285156
1534602999.560.9765625,-0.28466796875,0.13671875,1.83868408203,0.228881835938,-0.1220703125
1534602999.560.97509765625,-0.28662109375,0.136474609375,1.61743164062,0.419616699219,0.0457763671875
1534602999.560.974609375,-0.28759765625,0.136474609375,1.52587890625,0.373840332031,0.0839233398438
1534602999.560.9736328125,-0.287841796875,0.135986328125,1.76239013672,0.579833984375,-0.18310546875
1534602999.560.973388671875,-0.287109375,0.140625,1.56402587891,0.396728515625,-0.167846679688
1534602999.570.97216796875,-0.29052734375,0.139892578125,1.36566162109,0.175476074219,0.0457763671875
1534602999.570.97314453125,-0.28662109375,0.13818359375,1.59454345703,0.114440917969,0.167846679688
1534602999.570.97607421875,-0.286865234375,0.137451171875,1.75476074219,0.228881835938,0.06103515625
1534602999.570.974365234375,-0.28955078125,0.13818359375,1.57928466797,0.3662109375,0.0839233398438
1534602999.570.972412109375,-0.28955078125,0.137939453125,1.48010253906,0.00762939453125,0.18310546875
1534602999.570.97314453125,-0.2890625,0.135009765625,1.50299072266,-0.1220703125,0.312805175781
1534602999.570.97216796875,-0.287841796875,0.133056640625,1.63269042969,0.0381469726562,0.259399414062
1534602999.570.971923828125,-0.287353515625,0.134033203125,1.68609619141,0.152587890625,0.00762939453125
1534602999.580.972900390625,-0.289794921875,0.141357421875,1.81579589844,0.190734863281,-0.106811523438
1534602999.580.9716796875,-0.289794921875,0.133544921875,1.54876708984,0.1220703125,0.160217285156
1534602999.580.974609375,-0.29296875,0.13623046875,1.61743164062,-0.06103515625,0.282287597656
1534602999.580.97265625,-0.291015625,0.137451171875,1.68609619141,-0.0228881835938,0.419616699219
1534602999.580.970947265625,-0.2890625,0.1396484375,1.48010253906,0.0991821289062,0.297546386719
1534602999.580.9716796875,-0.289306640625,0.137451171875,1.37329101562,0.0381469726562,0.228881835938
1534602999.580.97216796875,-0.28759765625,0.13916015625,1.44195556641,0.00762939453125,0.18310546875
1534602999.580.968994140625,-0.29345703125,0.13232421875,1.64794921875,0.00762939453125,0.328063964844
1534602999.590.97216796875,-0.29296875,0.134765625,1.5869140625,0.442504882812,0.18310546875
1534602999.60.97314453125,-0.295166015625,0.136962890625,1.52587890625,0.228881835938,-0.0534057617188
1534602999.60.971435546875,-0.29248046875,0.136962890625,1.40380859375,0.312805175781,0.030517578125
1534602999.60.97216796875,-0.291748046875,0.138916015625,1.43432617188,0.205993652344,-0.0534057617188
1534602999.60.973388671875,-0.29248046875,0.13623046875,1.46484375,0.343322753906,-0.328063964844
1534602999.610.971923828125,-0.289306640625,0.133544921875,1.28936767578,0.54931640625,-0.30517578125
1534602999.610.970703125,-0.2919921875,0.1298828125,1.29699707031,0.717163085938,-0.564575195312
1534602999.610.97119140625,-0.29296875,0.135498046875,1.5869140625,0.816345214844,-0.625610351562
1534602999.610.975341796875,-0.287841796875,0.14111328125,1.72424316406,0.770568847656,-0.640869140625
1534602999.610.975341796875,-0.28857421875,0.138916015625,1.49536132812,1.05285644531,-0.724792480469
1534602999.620.970458984375,-0.293212890625,0.134521484375,1.48773193359,1.10626220703,-0.717163085938
1534602999.620.970947265625,-0.293212890625,0.142578125,1.48773193359,0.885009765625,-0.808715820312
1534602999.620.974365234375,-0.28857421875,0.1357421875,1.38854980469,1.17492675781,-0.9765625
1534602999.620.973388671875,-0.28955078125,0.138671875,1.80053710938,0.946044921875,-1.11389160156
1534602999.630.97314453125,-0.287109375,0.136474609375,1.87683105469,0.999450683594,-0.930786132812
1534602999.630.975830078125,-0.28759765625,0.13818359375,1.5869140625,0.953674316406,-0.778198242188
1534602999.630.97119140625,-0.292724609375,0.14013671875,1.43432617188,1.12152099609,-0.923156738281
1534602999.630.974365234375,-0.28955078125,0.14306640625,1.44958496094,1.29699707031,-1.20544433594
1534602999.630.975830078125,-0.29052734375,0.14306640625,1.18255615234,1.28173828125,-1.25122070312
1534602999.630.97216796875,-0.286865234375,0.142333984375,1.33514404297,0.946044921875,-1.21307373047
1534602999.640.974609375,-0.28857421875,0.14013671875,1.60980224609,0.961303710938,-1.00708007812
1534602999.640.972412109375,-0.281982421875,0.13720703125,1.84631347656,0.968933105469,-0.762939453125
1534602999.640.97412109375,-0.2822265625,0.140625,1.83868408203,0.984191894531,-0.747680664062
1534602999.650.97607421875,-0.287109375,0.138671875,1.57928466797,0.770568847656,-0.839233398438
1534602999.650.980224609375,-0.28369140625,0.142822265625,1.73187255859,0.808715820312,-0.595092773438
1534602999.650.977294921875,-0.284912109375,0.140869140625,1.64794921875,0.595092773438,-0.67138671875
1534602999.650.976318359375,-0.283203125,0.135498046875,1.44958496094,0.450134277344,-0.526428222656
1534602999.650.973388671875,-0.283935546875,0.13671875,1.49536132812,0.465393066406,-0.686645507812
1534602999.660.974365234375,-0.284912109375,0.138671875,1.87683105469,0.404357910156,-0.625610351562
1534602999.660.97216796875,-0.281494140625,0.140380859375,1.5869140625,0.511169433594,-0.701904296875
1534602999.660.97607421875,-0.282958984375,0.141845703125,1.54113769531,0.709533691406,-0.465393066406
1534602999.660.9765625,-0.285888671875,0.14111328125,1.708984375,0.442504882812,-0.244140625
1534602999.660.969970703125,-0.28369140625,0.138427734375,1.60980224609,0.3662109375,-0.167846679688
1534602999.660.971923828125,-0.2822265625,0.13623046875,1.45721435547,0.3662109375,-0.373840332031
1534602999.660.97265625,-0.282470703125,0.136474609375,1.68609619141,0.495910644531,-0.381469726562
1534602999.670.97216796875,-0.283935546875,0.13818359375,1.59454345703,0.457763671875,-0.335693359375
1534602999.670.9716796875,-0.286865234375,0.136474609375,1.5869140625,0.442504882812,-0.0762939453125
1534602999.670.971435546875,-0.284912109375,0.135986328125,1.45721435547,0.442504882812,-0.030517578125
1534602999.670.9736328125,-0.28662109375,0.137451171875,1.60217285156,0.289916992188,-0.06103515625
1534602999.670.97509765625,-0.283935546875,0.14404296875,1.43432617188,0.320434570312,-0.152587890625
1534602999.670.9736328125,-0.287109375,0.14208984375,1.73187255859,0.1220703125,-0.167846679688
1534602999.680.974365234375,-0.286376953125,0.14013671875,1.77764892578,0.358581542969,-0.0839233398438
1534602999.680.97998046875,-0.287841796875,0.14306640625,1.48010253906,0.0152587890625,0.0457763671875
1534602999.680.974609375,-0.285888671875,0.139404296875,1.44958496094,-0.137329101562,-0.0686645507812
1534602999.680.97314453125,-0.286376953125,0.137451171875,1.53350830078,0.0152587890625,0.144958496094
1534602999.680.973388671875,-0.28564453125,0.138427734375,1.51062011719,0.236511230469,0.00762939453125
1534602999.680.971923828125,-0.28564453125,0.137939453125,1.40380859375,0.144958496094,0.030517578125
1534602999.690.967041015625,-0.28662109375,0.140869140625,1.65557861328,0.267028808594,0.091552734375
1534602999.690.96923828125,-0.2841796875,0.140625,1.708984375,0.06103515625,0.0228881835938
1534602999.690.97412109375,-0.287109375,0.141357421875,1.57165527344,0.106811523438,-0.0457763671875
1534602999.690.97216796875,-0.288330078125,0.140625,1.51824951172,0.167846679688,-0.0839233398438
1534602999.690.97314453125,-0.2861328125,0.14013671875,1.60217285156,0.0991821289062,-0.114440917969
1534602999.690.977783203125,-0.2861328125,0.142578125,1.40380859375,0.18310546875,-0.160217285156
1534602999.690.97705078125,-0.285400390625,0.142333984375,1.31225585938,0.1220703125,0.0686645507812
1534602999.690.974853515625,-0.289794921875,0.1416015625,1.48773193359,0.167846679688,0.091552734375
1534602999.690.97216796875,-0.288818359375,0.13525390625,1.39617919922,0.0991821289062,0.0762939453125
1534602999.690.9736328125,-0.284912109375,0.13525390625,1.30462646484,0.106811523438,0.06103515625
1534602999.690.97705078125,-0.288330078125,0.138671875,1.41143798828,0.0152587890625,-0.0152587890625
1534602999.70.976806640625,-0.288818359375,0.12890625,1.3427734375,0.221252441406,-0.06103515625
1534602999.70.974853515625,-0.286865234375,0.131591796875,1.29699707031,0.152587890625,-0.0762939453125
1534602999.70.97412109375,-0.288330078125,0.13916015625,1.37329101562,0.244140625,-0.0381469726562
1534602999.70.973876953125,-0.287353515625,0.138427734375,1.43432617188,0.312805175781,-0.06103515625
1534602999.70.971923828125,-0.2880859375,0.139892578125,1.60217285156,0.450134277344,0.0839233398438
1534602999.70.97021484375,-0.29296875,0.136474609375,1.64031982422,0.106811523438,0.06103515625
1534602999.70.9716796875,-0.294921875,0.134765625,1.46484375,0.1220703125,-0.0534057617188
1534602999.70.973388671875,-0.291748046875,0.135009765625,1.25885009766,0.205993652344,-0.167846679688
1534602999.70.97216796875,-0.28857421875,0.1318359375,1.29699707031,0.18310546875,-0.06103515625
1534602999.70.97265625,-0.28857421875,0.133544921875,1.50299072266,0.328063964844,0.152587890625
1534602999.710.974365234375,-0.290771484375,0.1357421875,1.50299072266,0.152587890625,0.091552734375
1534602999.710.9765625,-0.290771484375,0.135009765625,1.5869140625,0.328063964844,-0.144958496094
1534602999.710.975830078125,-0.289306640625,0.13525390625,1.61743164062,0.495910644531,-0.328063964844
1534602999.710.97314453125,-0.290771484375,0.134033203125,1.66320800781,0.495910644531,-0.350952148438
1534602999.710.971923828125,-0.28955078125,0.13623046875,1.60980224609,0.389099121094,-0.259399414062
1534602999.710.971435546875,-0.291015625,0.139404296875,1.39617919922,0.411987304688,-0.175476074219
1534602999.710.9697265625,-0.29052734375,0.1435546875,1.31225585938,0.328063964844,-0.198364257812
1534602999.710.965576171875,-0.2890625,0.1416015625,1.40380859375,0.221252441406,-0.175476074219
1534602999.710.967529296875,-0.290771484375,0.13671875,1.79290771484,0.442504882812,-0.221252441406
1534602999.710.97216796875,-0.29052734375,0.1357421875,1.79290771484,0.389099121094,-0.129699707031
1534602999.720.970703125,-0.29150390625,0.136474609375,1.49536132812,0.205993652344,-0.289916992188
1534602999.720.9716796875,-0.291748046875,0.13818359375,1.38854980469,0.373840332031,-0.350952148438
1534602999.720.972412109375,-0.287841796875,0.135498046875,1.35040283203,0.465393066406,-0.42724609375
1534602999.720.975341796875,-0.28955078125,0.131103515625,1.36566162109,0.564575195312,-0.48828125
1534602999.720.975830078125,-0.292236328125,0.131591796875,1.38854980469,0.511169433594,-0.648498535156
1534602999.720.96923828125,-0.292236328125,0.134765625,1.31225585938,0.495910644531,-0.473022460938
1534602999.720.9697265625,-0.29296875,0.135498046875,1.21307373047,0.755310058594,-0.434875488281
1534602999.720.97119140625,-0.29345703125,0.134033203125,1.31225585938,0.732421875,-0.358581542969
1534602999.720.972900390625,-0.292236328125,0.137451171875,1.35803222656,0.541687011719,-0.328063964844
1534602999.720.971923828125,-0.290771484375,0.138916015625,1.55639648438,0.732421875,-0.54931640625
1534602999.730.970703125,-0.295166015625,0.13525390625,1.53350830078,0.816345214844,-0.717163085938
1534602999.730.971923828125,-0.295654296875,0.136474609375,1.31225585938,0.679016113281,-0.640869140625
1534602999.730.9736328125,-0.292236328125,0.136474609375,1.38092041016,0.694274902344,-0.381469726562
1534602999.730.976318359375,-0.289306640625,0.1337890625,1.54113769531,0.823974609375,-0.373840332031
1534602999.730.97265625,-0.28759765625,0.133544921875,1.44958496094,0.862121582031,-0.411987304688
1534602999.730.970703125,-0.2880859375,0.13671875,1.49536132812,0.724792480469,-0.495910644531
1534602999.730.972412109375,-0.28759765625,0.137451171875,1.47247314453,0.526428222656,-0.778198242188
1534602999.730.971435546875,-0.286376953125,0.1357421875,1.40380859375,0.747680664062,-0.450134277344
1534602999.730.970947265625,-0.287353515625,0.1259765625,1.66320800781,0.518798828125,-0.282287597656
1534602999.740.970458984375,-0.2890625,0.133056640625,1.68609619141,0.946044921875,-0.6103515625
1534602999.740.96923828125,-0.2900390625,0.134521484375,1.60980224609,1.03759765625,-0.831604003906
1534602999.740.970947265625,-0.289794921875,0.13037109375,1.72424316406,0.862121582031,-0.869750976562
1534602999.740.97314453125,-0.290771484375,0.13818359375,1.67846679688,0.984191894531,-0.846862792969
1534602999.740.972412109375,-0.29150390625,0.1435546875,1.39617919922,0.953674316406,-0.907897949219
1534602999.740.972900390625,-0.290771484375,0.1376953125,1.45721435547,1.00708007812,-0.694274902344
1534602999.740.97119140625,-0.292236328125,0.136474609375,1.54876708984,0.953674316406,-0.679016113281
1534602999.740.968994140625,-0.289794921875,0.137451171875,1.67846679688,0.961303710938,-0.816345214844
1534602999.740.971923828125,-0.287109375,0.1376953125,1.70135498047,0.778198242188,-0.823974609375
1534602999.740.97314453125,-0.28857421875,0.136962890625,1.57165527344,0.923156738281,-0.816345214844
1534602999.750.9716796875,-0.28955078125,0.138671875,1.49536132812,1.12152099609,-0.785827636719
1534602999.750.970703125,-0.289794921875,0.141845703125,1.41906738281,1.00708007812,-0.846862792969
1534602999.750.972900390625,-0.2890625,0.1396484375,1.50299072266,0.991821289062,-0.808715820312
1534602999.750.97119140625,-0.288330078125,0.142578125,1.62506103516,1.19018554688,-0.656127929688
1534602999.750.970458984375,-0.28662109375,0.142578125,1.708984375,1.24359130859,-0.648498535156
1534602999.750.974609375,-0.286376953125,0.137939453125,1.67083740234,1.11389160156,-0.846862792969
1534602999.750.9755859375,-0.287353515625,0.14013671875,1.57928466797,0.816345214844,-0.930786132812
1534602999.750.974853515625,-0.287353515625,0.1376953125,1.55639648438,0.6103515625,-0.816345214844
1534602999.750.974609375,-0.286865234375,0.136474609375,1.60217285156,0.541687011719,-0.762939453125
1534602999.750.97705078125,-0.2861328125,0.142822265625,1.69372558594,0.534057617188,-0.762939453125
1534602999.760.978515625,-0.28515625,0.142333984375,1.64794921875,0.732421875,-0.747680664062
1534602999.760.9765625,-0.283447265625,0.13623046875,1.54113769531,0.862121582031,-0.587463378906
1534602999.760.974853515625,-0.28515625,0.131103515625,1.64794921875,0.831604003906,-0.67138671875
1534602999.760.974609375,-0.2880859375,0.13427734375,1.64794921875,0.862121582031,-0.785827636719
1534602999.760.9736328125,-0.28662109375,0.13720703125,1.46484375,0.923156738281,-0.648498535156
1534602999.760.97314453125,-0.2841796875,0.13623046875,1.44195556641,0.732421875,-0.633239746094
1534602999.760.972900390625,-0.28173828125,0.138916015625,1.45721435547,0.885009765625,-0.686645507812
1534602999.760.974853515625,-0.28515625,0.143310546875,1.44958496094,1.12915039062,-0.839233398438
1534602999.770.97412109375,-0.290771484375,0.14208984375,1.68609619141,1.06811523438,-0.839233398438
1534602999.780.972412109375,-0.2841796875,0.142578125,1.56402587891,0.831604003906,-0.564575195312
1534602999.780.97998046875,-0.28271484375,0.13720703125,1.44958496094,0.534057617188,-0.701904296875
1534602999.780.976806640625,-0.283447265625,0.141845703125,1.70135498047,0.640869140625,-0.389099121094
1534602999.780.97998046875,-0.28662109375,0.143798828125,1.70135498047,0.679016113281,-0.335693359375
1534602999.780.975341796875,-0.288330078125,0.1416015625,1.70135498047,0.663757324219,-0.442504882812
1534602999.780.97119140625,-0.285400390625,0.1416015625,1.57165527344,0.656127929688,-0.526428222656
1534602999.780.97412109375,-0.282958984375,0.138671875,1.44958496094,0.450134277344,-0.480651855469
1534602999.780.977294921875,-0.281982421875,0.140625,1.43432617188,0.663757324219,-0.595092773438
1534602999.790.973388671875,-0.286865234375,0.13916015625,1.54876708984,0.518798828125,-0.312805175781
1534602999.790.973876953125,-0.28271484375,0.14111328125,1.59454345703,0.328063964844,-0.175476074219
1534602999.790.97509765625,-0.28271484375,0.140869140625,1.65557861328,0.259399414062,-0.289916992188
1534602999.790.9736328125,-0.284912109375,0.136962890625,1.55639648438,0.564575195312,-0.160217285156
1534602999.790.974365234375,-0.287109375,0.135498046875,1.54876708984,0.640869140625,-0.091552734375
1534602999.80.97314453125,-0.286376953125,0.138427734375,1.70135498047,0.541687011719,-0.205993652344
1534602999.80.971923828125,-0.283447265625,0.13623046875,1.57165527344,0.251770019531,-0.152587890625
1534602999.80.974365234375,-0.283935546875,0.137451171875,1.48010253906,0.503540039062,-0.106811523438
1534602999.80.97509765625,-0.28857421875,0.143798828125,1.44958496094,0.450134277344,-0.236511230469
1534602999.80.975830078125,-0.28515625,0.146484375,1.46484375,0.389099121094,-0.259399414062
1534602999.80.974365234375,-0.284912109375,0.142578125,1.44958496094,0.228881835938,-0.129699707031
1534602999.80.9716796875,-0.28662109375,0.138427734375,1.57928466797,0.320434570312,-0.152587890625
1534602999.80.9736328125,-0.284423828125,0.140380859375,1.60217285156,0.411987304688,-0.106811523438
1534602999.810.970703125,-0.286865234375,0.139892578125,1.35803222656,0.228881835938,-0.030517578125
1534602999.810.97265625,-0.287841796875,0.13916015625,1.43432617188,0.205993652344,-0.0762939453125
1534602999.810.973876953125,-0.288818359375,0.135498046875,1.52587890625,0.114440917969,-0.0762939453125
1534602999.810.975341796875,-0.28759765625,0.13720703125,1.69372558594,0.0228881835938,-0.0839233398438
1534602999.810.9716796875,-0.2861328125,0.138427734375,1.68609619141,0.1220703125,0.0534057617188
1534602999.810.9677734375,-0.2890625,0.139404296875,1.52587890625,0.259399414062,0.289916992188
1534602999.820.972412109375,-0.287353515625,0.135498046875,1.43432617188,0.198364257812,-0.030517578125
1534602999.820.96923828125,-0.29150390625,0.135986328125,1.63269042969,0.328063964844,0.251770019531
1534602999.820.96826171875,-0.291015625,0.14111328125,1.66320800781,0.1220703125,0.221252441406
1534602999.820.96923828125,-0.290283203125,0.139404296875,1.55639648438,0.282287597656,-0.160217285156
1534602999.820.96875,-0.291259765625,0.14111328125,1.51062011719,0.3662109375,-0.282287597656
1534602999.820.970458984375,-0.2890625,0.136962890625,1.39617919922,0.244140625,-0.221252441406
1534602999.820.973388671875,-0.28857421875,0.136474609375,1.64794921875,0.091552734375,0.0152587890625
1534602999.820.971435546875,-0.292724609375,0.134033203125,1.72424316406,0.175476074219,-0.0457763671875
1534602999.830.97119140625,-0.291259765625,0.130615234375,1.54876708984,0.0991821289062,-0.0534057617188
1534602999.830.972900390625,-0.287109375,0.13427734375,1.44195556641,0.129699707031,0.0686645507812
1534602999.830.971923828125,-0.287109375,0.1318359375,1.55639648438,0.419616699219,-0.106811523438
1534602999.830.9716796875,-0.28759765625,0.132568359375,1.60217285156,0.434875488281,0.0
1534602999.830.971923828125,-0.29150390625,0.1376953125,1.43432617188,0.335693359375,0.114440917969
1534602999.830.972900390625,-0.289306640625,0.1376953125,1.39617919922,0.335693359375,-0.137329101562
1534602999.830.97119140625,-0.28759765625,0.13916015625,1.41143798828,0.42724609375,-0.221252441406
1534602999.830.970703125,-0.2900390625,0.13818359375,1.5869140625,0.511169433594,-0.404357910156
1534602999.840.970703125,-0.288330078125,0.139404296875,1.5869140625,0.381469726562,0.06103515625
1534602999.840.974853515625,-0.289306640625,0.13525390625,1.29699707031,0.274658203125,0.0228881835938
1534602999.840.9755859375,-0.288818359375,0.14111328125,1.59454345703,0.656127929688,-0.335693359375
1534602999.840.969970703125,-0.288330078125,0.14208984375,1.49536132812,0.556945800781,-0.328063964844
1534602999.840.9697265625,-0.28662109375,0.139404296875,1.70135498047,0.473022460938,-0.419616699219
1534602999.840.97412109375,-0.286865234375,0.13818359375,1.74713134766,0.511169433594,-0.465393066406
1534602999.840.974365234375,-0.287841796875,0.13330078125,1.60217285156,0.663757324219,-0.42724609375
1534602999.840.97119140625,-0.291015625,0.1337890625,1.51824951172,0.709533691406,-0.480651855469
1534602999.850.970947265625,-0.294677734375,0.138916015625,1.67083740234,0.48828125,-0.495910644531
1534602999.850.97021484375,-0.293701171875,0.139404296875,1.53350830078,0.526428222656,-0.564575195312
1534602999.850.969482421875,-0.290771484375,0.13916015625,1.28173828125,0.808715820312,-0.579833984375
1534602999.850.968994140625,-0.290283203125,0.136962890625,1.40380859375,0.801086425781,-0.564575195312
1534602999.850.968994140625,-0.28857421875,0.138671875,1.38854980469,0.465393066406,-0.617980957031
1534602999.850.9716796875,-0.2841796875,0.1455078125,1.52587890625,0.465393066406,-0.541687011719
1534602999.850.97119140625,-0.287841796875,0.14892578125,1.47247314453,0.587463378906,-0.503540039062
1534602999.850.97314453125,-0.287841796875,0.1455078125,1.51824951172,0.946044921875,-0.6103515625
1534602999.850.97607421875,-0.284912109375,0.136962890625,1.40380859375,1.02233886719,-0.823974609375
1534602999.850.9755859375,-0.288330078125,0.1357421875,1.51062011719,0.656127929688,-0.801086425781
1534602999.860.974853515625,-0.288818359375,0.13916015625,1.68609619141,0.770568847656,-0.640869140625
1534602999.860.974365234375,-0.289306640625,0.1435546875,1.67083740234,0.831604003906,-0.556945800781
1534602999.860.97216796875,-0.2919921875,0.14013671875,1.47247314453,0.869750976562,-0.595092773438
1534602999.860.970947265625,-0.28857421875,0.134765625,1.29699707031,0.862121582031,-0.770568847656
1534602999.860.975830078125,-0.285888671875,0.13720703125,1.42669677734,0.946044921875,-0.724792480469
1534602999.860.9765625,-0.28662109375,0.140380859375,1.46484375,0.862121582031,-0.801086425781
1534602999.860.97021484375,-0.287841796875,0.141845703125,1.60217285156,0.801086425781,-0.999450683594
1534602999.860.968017578125,-0.291259765625,0.14208984375,1.64794921875,0.930786132812,-0.831604003906
1534602999.860.968017578125,-0.289794921875,0.136962890625,1.60980224609,1.13677978516,-0.816345214844
1534602999.860.968994140625,-0.285400390625,0.135498046875,1.56402587891,1.06048583984,-0.808715820312
1534602999.870.971923828125,-0.286865234375,0.14208984375,1.48773193359,1.05285644531,-0.808715820312
1534602999.870.971923828125,-0.286865234375,0.14208984375,1.51062011719,0.984191894531,-0.8544921875
1534602999.870.973388671875,-0.291015625,0.1455078125,1.53350830078,0.938415527344,-0.862121582031
1534602999.870.97314453125,-0.28857421875,0.13916015625,1.81579589844,1.25122070312,-0.663757324219
1534602999.870.97705078125,-0.288818359375,0.1376953125,1.60980224609,0.595092773438,-0.839233398438
1534602999.870.973876953125,-0.28662109375,0.13916015625,1.51824951172,0.8544921875,-0.8544921875
1534602999.870.97412109375,-0.288818359375,0.14306640625,1.54113769531,0.961303710938,-0.732421875
1534602999.870.975830078125,-0.2880859375,0.14111328125,1.54876708984,1.0986328125,-0.816345214844
1534602999.880.974609375,-0.2861328125,0.14111328125,1.54113769531,1.15966796875,-0.823974609375
1534602999.880.97412109375,-0.2880859375,0.1328125,1.37329101562,0.938415527344,-0.694274902344
1534602999.880.9716796875,-0.287109375,0.13525390625,1.44195556641,0.885009765625,-0.518798828125
1534602999.880.9716796875,-0.286376953125,0.1376953125,1.52587890625,1.00708007812,-0.556945800781
1534602999.880.974853515625,-0.28857421875,0.13525390625,1.61743164062,0.91552734375,-0.785827636719
1534602999.880.973876953125,-0.287841796875,0.135009765625,1.63269042969,0.778198242188,-0.961303710938
1534602999.880.970947265625,-0.287353515625,0.1376953125,1.61743164062,0.740051269531,-0.869750976562
1534602999.880.973388671875,-0.29052734375,0.139892578125,1.48773193359,0.663757324219,-0.732421875
1534602999.880.97314453125,-0.29248046875,0.140625,1.3427734375,0.595092773438,-0.602722167969
1534602999.880.971923828125,-0.288818359375,0.14111328125,1.51062011719,0.701904296875,-0.701904296875
1534602999.890.972900390625,-0.28662109375,0.1416015625,1.69372558594,0.755310058594,-0.6103515625
1534602999.890.973876953125,-0.284912109375,0.141357421875,1.67083740234,0.778198242188,-0.358581542969
1534602999.890.974853515625,-0.284912109375,0.138427734375,1.46484375,0.6103515625,-0.381469726562
1534602999.890.974853515625,-0.284912109375,0.138427734375,1.19781494141,0.633239746094,-0.511169433594
1534602999.890.97216796875,-0.28466796875,0.138916015625,1.39617919922,0.640869140625,-0.572204589844
1534602999.890.970458984375,-0.28662109375,0.140380859375,1.57928466797,0.465393066406,-0.518798828125
1534602999.890.97314453125,-0.28759765625,0.141357421875,1.54876708984,0.42724609375,-0.328063964844
1534602999.890.976318359375,-0.285888671875,0.1416015625,1.41906738281,0.42724609375,-0.251770019531
1534602999.890.97412109375,-0.28564453125,0.135498046875,1.35040283203,0.480651855469,-0.244140625
1534602999.890.97216796875,-0.287109375,0.132080078125,1.57165527344,0.740051269531,-0.259399414062
1534602999.90.974853515625,-0.287109375,0.13623046875,1.70135498047,0.701904296875,-0.205993652344
1534602999.90.97705078125,-0.283447265625,0.141357421875,1.64794921875,0.518798828125,-0.160217285156
1534602999.90.97705078125,-0.287841796875,0.13818359375,1.39617919922,0.3662109375,-0.350952148438
1534602999.90.97314453125,-0.2890625,0.136962890625,1.41143798828,0.328063964844,-0.541687011719
1534602999.90.971923828125,-0.28466796875,0.142333984375,1.53350830078,0.495910644531,-0.648498535156
1534602999.90.97705078125,-0.2841796875,0.14453125,1.47247314453,0.541687011719,-0.411987304688
1534602999.90.97607421875,-0.283935546875,0.14208984375,1.53350830078,0.511169433594,-0.350952148438
1534602999.90.971435546875,-0.284423828125,0.138916015625,1.64031982422,0.450134277344,-0.373840332031
1534602999.90.97265625,-0.28515625,0.141845703125,1.56402587891,0.373840332031,-0.480651855469
1534602999.90.974365234375,-0.28466796875,0.143798828125,1.48773193359,0.54931640625,-0.442504882812
1534602999.90.975830078125,-0.285888671875,0.14404296875,1.53350830078,0.663757324219,-0.236511230469
1534602999.910.9755859375,-0.287109375,0.145751953125,1.55639648438,0.518798828125,-0.289916992188
1534602999.910.97412109375,-0.28662109375,0.140380859375,1.52587890625,0.358581542969,-0.42724609375
1534602999.910.973388671875,-0.286376953125,0.136962890625,1.41906738281,0.411987304688,-0.236511230469
1534602999.910.972900390625,-0.284912109375,0.135986328125,1.44195556641,0.396728515625,-0.0381469726562
1534602999.910.971923828125,-0.28173828125,0.140380859375,1.38854980469,0.343322753906,0.0
1534602999.910.968994140625,-0.283935546875,0.143798828125,1.25885009766,0.0762939453125,-0.221252441406
1534602999.910.97119140625,-0.287109375,0.140625,1.31988525391,0.152587890625,-0.236511230469
1534602999.910.9755859375,-0.2890625,0.14208984375,1.57928466797,0.358581542969,-0.282287597656
1534602999.920.9765625,-0.29052734375,0.141845703125,1.71661376953,0.411987304688,-0.373840332031
1534602999.920.973388671875,-0.286376953125,0.142333984375,1.5869140625,0.396728515625,-0.190734863281
1534602999.930.972412109375,-0.291015625,0.137451171875,1.57928466797,0.495910644531,-0.129699707031
1534602999.930.9736328125,-0.28857421875,0.14013671875,1.63269042969,0.511169433594,-0.42724609375
1534602999.930.974853515625,-0.2919921875,0.13427734375,1.38092041016,0.251770019531,-0.190734863281
1534602999.930.977294921875,-0.28564453125,0.139404296875,1.43432617188,0.06103515625,-0.175476074219
1534602999.930.975830078125,-0.2861328125,0.133056640625,1.48773193359,0.282287597656,-0.030517578125
1534602999.930.97412109375,-0.286865234375,0.13134765625,1.67083740234,0.396728515625,-0.167846679688
1534602999.930.971923828125,-0.28564453125,0.131591796875,1.64794921875,0.373840332031,-0.213623046875
1534602999.930.972412109375,-0.285400390625,0.13525390625,1.60217285156,0.350952148438,0.030517578125
1534602999.940.971435546875,-0.287353515625,0.136962890625,1.55639648438,0.343322753906,-0.175476074219
1534602999.940.96630859375,-0.291259765625,0.141357421875,1.30462646484,0.373840332031,-0.289916992188
1534602999.940.97705078125,-0.28759765625,0.139892578125,1.28936767578,0.259399414062,-0.282287597656
1534602999.940.976318359375,-0.28759765625,0.1376953125,1.48773193359,0.48828125,-0.320434570312
1534602999.940.973388671875,-0.2900390625,0.136962890625,1.56402587891,0.289916992188,-0.343322753906
1534602999.950.97119140625,-0.2919921875,0.13623046875,1.46484375,0.213623046875,-0.18310546875
1534602999.950.97021484375,-0.29443359375,0.1357421875,1.72424316406,0.274658203125,-0.18310546875
1534602999.950.970703125,-0.2900390625,0.140869140625,1.82342529297,0.648498535156,-0.312805175781
1534602999.950.972412109375,-0.286865234375,0.137939453125,1.64794921875,0.6103515625,-0.244140625
1534602999.950.97265625,-0.287353515625,0.13232421875,1.45721435547,0.205993652344,-0.328063964844
1534602999.950.971923828125,-0.289306640625,0.13623046875,1.43432617188,0.625610351562,-0.167846679688
1534602999.950.97119140625,-0.28857421875,0.137451171875,1.36566162109,0.495910644531,-0.144958496094
1534602999.960.972412109375,-0.2890625,0.13818359375,1.45721435547,0.450134277344,-0.221252441406
1534602999.960.96826171875,-0.28857421875,0.13720703125,1.64031982422,0.572204589844,-0.312805175781
1534602999.960.972412109375,-0.28759765625,0.135498046875,1.73187255859,0.572204589844,-0.511169433594
1534602999.960.974609375,-0.285888671875,0.134521484375,1.35803222656,0.3662109375,-0.541687011719
1534602999.960.97021484375,-0.29345703125,0.135986328125,1.46484375,0.404357910156,-0.648498535156
1534602999.970.974609375,-0.289794921875,0.13330078125,1.45721435547,0.473022460938,-0.762939453125
1534602999.970.970947265625,-0.288818359375,0.14501953125,1.41906738281,0.541687011719,-0.572204589844
1534602999.970.96875,-0.290283203125,0.140380859375,1.51824951172,0.633239746094,-0.312805175781
1534602999.970.970703125,-0.290771484375,0.135986328125,1.53350830078,0.633239746094,-0.328063964844
1534602999.970.9716796875,-0.286376953125,0.13818359375,1.49536132812,0.640869140625,-0.442504882812
1534602999.970.9716796875,-0.2861328125,0.138916015625,1.54876708984,0.770568847656,-0.564575195312
1534602999.970.97265625,-0.291259765625,0.13525390625,1.61743164062,0.801086425781,-0.686645507812
1534602999.970.97265625,-0.291259765625,0.13525390625,1.5869140625,0.663757324219,-0.679016113281
1534602999.970.97119140625,-0.288818359375,0.13427734375,1.50299072266,0.816345214844,-0.732421875
1534602999.980.974853515625,-0.2880859375,0.140625,1.49536132812,0.91552734375,-0.755310058594
1534602999.980.972900390625,-0.289306640625,0.139892578125,1.39617919922,0.961303710938,-0.877380371094
1534602999.980.969970703125,-0.2900390625,0.13720703125,1.35040283203,0.953674316406,-0.923156738281
1534602999.980.969970703125,-0.2900390625,0.13720703125,1.40380859375,0.877380371094,-0.740051269531
1534602999.980.9736328125,-0.2890625,0.14111328125,1.41906738281,0.869750976562,-0.648498535156
1534602999.980.9736328125,-0.2890625,0.14111328125,1.65557861328,0.900268554688,-0.6103515625
1534602999.980.97021484375,-0.287841796875,0.138427734375,1.64031982422,0.946044921875,-0.679016113281
1534602999.980.970947265625,-0.289794921875,0.140380859375,1.43432617188,0.839233398438,-0.846862792969
1534602999.980.97216796875,-0.2890625,0.134765625,1.57165527344,0.900268554688,-0.579833984375
1534602999.990.971435546875,-0.287353515625,0.137451171875,1.56402587891,0.801086425781,-0.564575195312
1534602999.990.972900390625,-0.2890625,0.1416015625,1.63269042969,0.9765625,-0.572204589844
1534602999.990.972900390625,-0.2890625,0.144287109375,1.61743164062,0.991821289062,-0.717163085938
1534602999.990.973388671875,-0.28857421875,0.14404296875,1.63269042969,0.595092773438,-0.862121582031
1534602999.990.97216796875,-0.284912109375,0.138427734375,1.65557861328,0.54931640625,-0.785827636719
1534602999.990.971435546875,-0.284912109375,0.135986328125,1.55639648438,0.801086425781,-0.801086425781
1534602999.990.971435546875,-0.2890625,0.134765625,1.51824951172,0.846862792969,-0.808715820312
1534602999.990.97216796875,-0.2900390625,0.13671875,1.52587890625,0.801086425781,-0.862121582031
1534602999.990.97119140625,-0.290771484375,0.137451171875,1.30462646484,0.79345703125,-0.846862792969
1534602999.990.97216796875,-0.287353515625,0.135986328125,1.51824951172,0.961303710938,-0.679016113281
1534603000.00.975830078125,-0.283935546875,0.139892578125,1.67846679688,0.869750976562,-0.663757324219
1534603000.00.97607421875,-0.287353515625,0.139892578125,1.52587890625,1.01470947266,-0.67138671875
1534603000.00.976318359375,-0.289306640625,0.135498046875,1.33514404297,0.991821289062,-0.709533691406
1534603000.00.975830078125,-0.2880859375,0.137451171875,1.26647949219,0.900268554688,-0.831604003906
1534603000.00.9736328125,-0.2880859375,0.143310546875,1.28173828125,0.778198242188,-0.709533691406
1534603000.00.973876953125,-0.284423828125,0.142333984375,1.37329101562,0.648498535156,-0.518798828125
1534603000.00.974365234375,-0.28271484375,0.137451171875,1.54876708984,0.473022460938,-0.450134277344
1534603000.00.97412109375,-0.285888671875,0.135498046875,1.59454345703,0.511169433594,-0.587463378906
1534603000.00.972900390625,-0.28466796875,0.135498046875,1.54113769531,0.679016113281,-0.663757324219
1534603000.00.9716796875,-0.284423828125,0.138671875,1.51824951172,0.778198242188,-0.679016113281
1534603000.010.97509765625,-0.287353515625,0.1416015625,1.59454345703,0.595092773438,-0.686645507812
1534603000.010.9736328125,-0.284423828125,0.140869140625,1.73950195312,0.686645507812,-0.633239746094
1534603000.010.97021484375,-0.28466796875,0.142333984375,1.61743164062,0.823974609375,-0.747680664062
1534603000.010.972900390625,-0.2890625,0.1435546875,1.67846679688,0.656127929688,-0.42724609375
1534603000.010.97314453125,-0.2900390625,0.14208984375,1.66320800781,0.503540039062,-0.274658203125
1534603000.010.974609375,-0.290283203125,0.1396484375,1.57165527344,0.686645507812,-0.350952148438
1534603000.010.977783203125,-0.287353515625,0.139404296875,1.48010253906,0.91552734375,-0.503540039062
1534603000.010.976318359375,-0.285400390625,0.1416015625,1.51824951172,0.770568847656,-0.54931640625
1534603000.010.973388671875,-0.28564453125,0.13525390625,1.53350830078,0.457763671875,-0.480651855469
1534603000.010.97216796875,-0.285888671875,0.1337890625,1.5869140625,0.442504882812,-0.335693359375
1534603000.020.97314453125,-0.285400390625,0.13916015625,1.57165527344,0.3662109375,-0.175476074219
1534603000.020.9765625,-0.28515625,0.1376953125,1.41906738281,0.389099121094,-0.236511230469
1534603000.020.976318359375,-0.28564453125,0.13525390625,1.35803222656,0.518798828125,-0.213623046875
1534603000.020.971435546875,-0.286865234375,0.1376953125,1.47247314453,0.404357910156,-0.190734863281
1534603000.020.973876953125,-0.289306640625,0.14453125,1.44195556641,0.404357910156,-0.167846679688
1534603000.020.974365234375,-0.286865234375,0.14404296875,1.43432617188,0.419616699219,-0.328063964844
1534603000.020.970947265625,-0.2861328125,0.14208984375,1.55639648438,0.587463378906,-0.267028808594
1534603000.020.97412109375,-0.2880859375,0.14306640625,1.47247314453,0.679016113281,-0.236511230469
1534603000.020.974609375,-0.286865234375,0.137939453125,1.54113769531,0.6103515625,-0.228881835938
1534603000.020.9736328125,-0.286376953125,0.13720703125,1.46484375,0.450134277344,-0.137329101562
1534603000.030.97607421875,-0.28515625,0.14111328125,1.48010253906,0.42724609375,-0.0839233398438
1534603000.030.9775390625,-0.283935546875,0.138916015625,1.48010253906,0.473022460938,-0.175476074219
1534603000.030.973388671875,-0.284423828125,0.13671875,1.65557861328,0.450134277344,-0.312805175781
1534603000.030.97119140625,-0.283447265625,0.136962890625,1.57928466797,0.274658203125,-0.3662109375
1534603000.030.973388671875,-0.287841796875,0.13720703125,1.39617919922,0.152587890625,-0.137329101562
1534603000.030.9736328125,-0.29052734375,0.137451171875,1.31988525391,0.18310546875,0.0457763671875
1534603000.030.9755859375,-0.2861328125,0.138916015625,1.40380859375,0.328063964844,-0.282287597656
1534603000.030.9765625,-0.283203125,0.1376953125,1.69372558594,0.434875488281,-0.480651855469
1534603000.030.976806640625,-0.286376953125,0.136474609375,1.79290771484,0.450134277344,-0.274658203125
1534603000.030.978515625,-0.29052734375,0.140380859375,1.66320800781,0.411987304688,-0.137329101562
1534603000.030.9775390625,-0.290283203125,0.14013671875,1.53350830078,0.396728515625,-0.160217285156
1534603000.040.9755859375,-0.28857421875,0.13720703125,1.44195556641,0.30517578125,-0.259399414062
1534603000.040.974365234375,-0.2861328125,0.137939453125,1.48773193359,0.114440917969,-0.335693359375
1534603000.040.97412109375,-0.287109375,0.142822265625,1.73187255859,-0.0534057617188,-0.267028808594
1534603000.040.97509765625,-0.28955078125,0.14208984375,1.71661376953,0.00762939453125,-0.244140625
1534603000.040.973876953125,-0.2900390625,0.135986328125,1.47247314453,0.213623046875,-0.18310546875
1534603000.040.973388671875,-0.28857421875,0.135986328125,1.44958496094,0.282287597656,-0.167846679688
1534603000.040.9716796875,-0.286865234375,0.135009765625,1.64794921875,0.259399414062,-0.198364257812
1534603000.040.96923828125,-0.287109375,0.133544921875,1.65557861328,0.350952148438,-0.244140625
1534603000.040.968505859375,-0.288818359375,0.135498046875,1.5869140625,0.465393066406,-0.205993652344
1534603000.040.970703125,-0.28759765625,0.138427734375,1.60217285156,0.335693359375,-0.175476074219
1534603000.050.972412109375,-0.28515625,0.13671875,1.64031982422,0.221252441406,-0.228881835938
1534603000.050.973388671875,-0.2861328125,0.1376953125,1.59454345703,0.350952148438,-0.205993652344
1534603000.050.975341796875,-0.28759765625,0.13623046875,1.41143798828,0.465393066406,-0.114440917969
1534603000.050.97314453125,-0.287353515625,0.13427734375,1.38854980469,0.381469726562,-0.190734863281
1534603000.050.971435546875,-0.2890625,0.138671875,1.53350830078,0.282287597656,-0.251770019531
1534603000.050.97119140625,-0.289306640625,0.135498046875,1.41143798828,0.244140625,-0.190734863281
1534603000.050.9716796875,-0.28857421875,0.13427734375,1.51824951172,0.190734863281,-0.297546386719
1534603000.050.972900390625,-0.2890625,0.13525390625,1.80816650391,0.259399414062,-0.18310546875
1534603000.050.97607421875,-0.28857421875,0.136474609375,1.67846679688,0.274658203125,-0.251770019531
1534603000.050.975830078125,-0.2880859375,0.140380859375,1.44958496094,0.289916992188,-0.480651855469
1534603000.060.972412109375,-0.289794921875,0.13916015625,1.48773193359,0.503540039062,-0.617980957031
1534603000.060.973876953125,-0.289794921875,0.1337890625,1.44195556641,0.526428222656,-0.328063964844
1534603000.060.97216796875,-0.28857421875,0.134765625,1.63269042969,0.617980957031,-0.205993652344
1534603000.060.969970703125,-0.289794921875,0.136474609375,1.64031982422,0.701904296875,-0.556945800781
1534603000.060.968017578125,-0.28759765625,0.136474609375,1.41906738281,0.587463378906,-0.67138671875
1534603000.060.96923828125,-0.28515625,0.1396484375,1.31988525391,0.282287597656,-0.587463378906
1534603000.060.97314453125,-0.2861328125,0.1435546875,1.30462646484,0.137329101562,-0.434875488281
1534603000.060.97412109375,-0.288330078125,0.14501953125,1.47247314453,0.3662109375,-0.473022460938
1534603000.060.977783203125,-0.29052734375,0.1376953125,1.65557861328,0.358581542969,-0.419616699219
1534603000.060.97314453125,-0.28955078125,0.1357421875,1.61743164062,0.442504882812,-0.404357910156
1534603000.070.96923828125,-0.2890625,0.13623046875,1.64794921875,0.526428222656,-0.404357910156
1534603000.070.9736328125,-0.288330078125,0.135009765625,1.60980224609,0.404357910156,-0.564575195312
1534603000.070.975341796875,-0.2880859375,0.138916015625,1.61743164062,0.289916992188,-0.518798828125
1534603000.070.974853515625,-0.293701171875,0.13720703125,1.708984375,0.411987304688,-0.579833984375
1534603000.070.971923828125,-0.29443359375,0.13623046875,1.64794921875,0.328063964844,-0.434875488281
1534603000.070.971923828125,-0.29345703125,0.134521484375,1.57928466797,0.358581542969,-0.236511230469
1534603000.080.973876953125,-0.28955078125,0.133056640625,1.64794921875,0.587463378906,-0.137329101562
1534603000.080.969970703125,-0.296142578125,0.134765625,1.50299072266,0.511169433594,-0.648498535156
1534603000.080.972412109375,-0.290283203125,0.133544921875,1.44195556641,0.801086425781,-0.465393066406
1534603000.090.972412109375,-0.288330078125,0.139892578125,1.35040283203,0.617980957031,-0.335693359375
1534603000.090.973388671875,-0.288330078125,0.136474609375,1.56402587891,0.274658203125,-0.1220703125
1534603000.090.9755859375,-0.289794921875,0.133056640625,1.66320800781,0.48828125,-0.442504882812
1534603000.090.97509765625,-0.28857421875,0.134765625,1.54876708984,0.442504882812,-0.457763671875
1534603000.090.973876953125,-0.287353515625,0.13818359375,1.15203857422,0.564575195312,-0.267028808594
1534603000.090.971923828125,-0.2890625,0.138427734375,1.10626220703,0.67138671875,-0.465393066406
1534603000.090.97265625,-0.289794921875,0.138427734375,1.43432617188,0.556945800781,-0.732421875
1534603000.090.97509765625,-0.289794921875,0.138427734375,1.60980224609,0.511169433594,-0.717163085938
1534603000.10.97705078125,-0.286865234375,0.142333984375,1.708984375,0.808715820312,-0.526428222656
1534603000.10.97607421875,-0.287353515625,0.14208984375,1.54876708984,0.839233398438,-0.564575195312
1534603000.10.9775390625,-0.290283203125,0.13818359375,1.59454345703,0.79345703125,-0.503540039062
1534603000.10.975830078125,-0.289794921875,0.1337890625,1.51824951172,0.770568847656,-0.526428222656
1534603000.10.970703125,-0.289794921875,0.135009765625,1.48773193359,0.778198242188,-0.755310058594
1534603000.110.970458984375,-0.289306640625,0.137939453125,1.38092041016,0.831604003906,-0.617980957031
1534603000.110.9736328125,-0.290771484375,0.140869140625,1.46484375,0.892639160156,-0.556945800781
1534603000.110.97412109375,-0.2890625,0.13623046875,1.62506103516,0.778198242188,-0.602722167969
1534603000.110.972900390625,-0.2900390625,0.1396484375,1.60217285156,0.724792480469,-0.8544921875
1534603000.110.9755859375,-0.2861328125,0.14111328125,1.59454345703,0.740051269531,-0.663757324219
1534603000.110.974609375,-0.286376953125,0.138427734375,1.36566162109,0.755310058594,-0.450134277344
1534603000.110.97119140625,-0.2861328125,0.14599609375,1.60980224609,0.717163085938,-0.564575195312
1534603000.120.97021484375,-0.28564453125,0.14208984375,1.53350830078,0.67138671875,-0.556945800781
1534603000.120.97265625,-0.287841796875,0.138671875,1.52587890625,0.762939453125,-0.694274902344
1534603000.120.971923828125,-0.286865234375,0.143798828125,1.50299072266,0.900268554688,-0.663757324219
1534603000.120.971435546875,-0.28515625,0.13720703125,1.57165527344,0.465393066406,-0.503540039062
1534603000.120.972900390625,-0.287353515625,0.13916015625,1.48773193359,0.595092773438,-0.648498535156
1534603000.130.973876953125,-0.2861328125,0.139892578125,1.65557861328,0.587463378906,-0.656127929688
1534603000.130.97607421875,-0.28466796875,0.142578125,1.88446044922,0.450134277344,-0.564575195312
1534603000.130.975830078125,-0.28564453125,0.14111328125,1.54876708984,0.534057617188,-0.48828125
1534603000.130.976318359375,-0.28662109375,0.137939453125,1.28173828125,0.617980957031,-0.381469726562
1534603000.130.976318359375,-0.28662109375,0.13671875,1.48010253906,0.389099121094,-0.373840332031
1534603000.130.976806640625,-0.2861328125,0.13720703125,1.60980224609,0.389099121094,-0.320434570312
1534603000.130.97314453125,-0.285400390625,0.1455078125,1.60217285156,0.6103515625,-0.320434570312
1534603000.130.97265625,-0.285400390625,0.14111328125,1.63269042969,0.656127929688,-0.381469726562
1534603000.130.9736328125,-0.28271484375,0.14013671875,1.36566162109,0.48828125,-0.587463378906
1534603000.140.974853515625,-0.2841796875,0.138916015625,1.51824951172,0.556945800781,-0.419616699219
1534603000.140.97412109375,-0.28515625,0.135009765625,1.57928466797,0.617980957031,-0.320434570312
1534603000.140.970947265625,-0.282958984375,0.140625,1.47247314453,0.373840332031,-0.282287597656
1534603000.140.970703125,-0.2841796875,0.14013671875,1.33514404297,0.556945800781,-0.297546386719
1534603000.140.972412109375,-0.286376953125,0.14306640625,1.28936767578,0.564575195312,-0.3662109375
1534603000.140.973876953125,-0.28515625,0.142578125,1.49536132812,0.381469726562,-0.3662109375
1534603000.140.97216796875,-0.284912109375,0.142822265625,1.57165527344,0.343322753906,-0.312805175781
1534603000.140.97265625,-0.289306640625,0.14013671875,1.45721435547,0.282287597656,-0.320434570312
1534603000.150.973388671875,-0.2919921875,0.13720703125,1.64031982422,0.48828125,-0.297546386719
1534603000.150.9755859375,-0.2861328125,0.145263671875,1.38092041016,0.320434570312,-0.1220703125
1534603000.150.975341796875,-0.289306640625,0.141357421875,1.45721435547,0.457763671875,-0.221252441406
1534603000.150.973388671875,-0.284423828125,0.14453125,1.51062011719,0.411987304688,-0.297546386719
1534603000.150.97119140625,-0.28857421875,0.1484375,1.47247314453,0.396728515625,-0.335693359375
1534603000.150.97607421875,-0.29248046875,0.140380859375,1.51824951172,0.297546386719,-0.404357910156
1534603000.150.9765625,-0.28857421875,0.13623046875,1.48010253906,0.228881835938,-0.312805175781
1534603000.160.9775390625,-0.283447265625,0.135009765625,1.40380859375,0.236511230469,-0.144958496094
1534603000.160.9775390625,-0.2841796875,0.135986328125,1.52587890625,0.213623046875,-0.312805175781
1534603000.160.9765625,-0.284423828125,0.140380859375,1.54876708984,0.297546386719,-0.282287597656
1534603000.160.97265625,-0.28369140625,0.13818359375,1.63269042969,0.30517578125,-0.167846679688
1534603000.160.97265625,-0.28857421875,0.140380859375,1.52587890625,0.503540039062,-0.320434570312
1534603000.160.9736328125,-0.291015625,0.1416015625,1.59454345703,0.534057617188,-0.289916992188
1534603000.160.97119140625,-0.2890625,0.14111328125,1.60980224609,0.534057617188,-0.213623046875
1534603000.160.97119140625,-0.2890625,0.14111328125,1.53350830078,0.48828125,-0.251770019531
1534603000.160.97265625,-0.28662109375,0.140869140625,1.19018554688,0.48828125,-0.190734863281
1534603000.160.97265625,-0.28662109375,0.140869140625,1.17492675781,0.343322753906,-0.297546386719
1534603000.170.973388671875,-0.29052734375,0.14013671875,1.28936767578,0.534057617188,-0.213623046875
1534603000.170.974609375,-0.294677734375,0.13623046875,1.59454345703,0.694274902344,-0.0228881835938
1534603000.170.974853515625,-0.29296875,0.13671875,1.46484375,0.480651855469,-0.0534057617188
1534603000.170.970458984375,-0.288330078125,0.138671875,1.51062011719,0.358581542969,-0.0762939453125
1534603000.170.9697265625,-0.28857421875,0.136962890625,1.48773193359,0.312805175781,-0.1220703125
1534603000.170.974609375,-0.290771484375,0.13671875,1.60217285156,0.465393066406,-0.144958496094
1534603000.170.97607421875,-0.28857421875,0.140869140625,1.48010253906,0.556945800781,-0.236511230469
1534603000.170.975830078125,-0.286376953125,0.14208984375,1.3427734375,0.701904296875,-0.274658203125
1534603000.170.970458984375,-0.28466796875,0.14306640625,1.28936767578,0.701904296875,-0.320434570312
1534603000.170.96923828125,-0.287353515625,0.14453125,1.35040283203,0.541687011719,-0.282287597656
1534603000.180.970703125,-0.2900390625,0.140380859375,1.43432617188,0.312805175781,-0.091552734375
1534603000.180.969482421875,-0.2890625,0.13720703125,1.43432617188,0.3662109375,-0.198364257812
1534603000.180.972900390625,-0.2890625,0.138671875,1.20544433594,0.3662109375,-0.358581542969
1534603000.180.969970703125,-0.291748046875,0.136474609375,1.35803222656,0.679016113281,-0.320434570312
1534603000.180.974609375,-0.291015625,0.131103515625,1.59454345703,0.595092773438,-0.213623046875
1534603000.180.978271484375,-0.291259765625,0.135498046875,1.64794921875,0.518798828125,-0.282287597656
1534603000.180.975830078125,-0.29150390625,0.13916015625,1.62506103516,0.419616699219,-0.350952148438
1534603000.180.97265625,-0.28955078125,0.134033203125,1.48010253906,0.335693359375,-0.42724609375
1534603000.180.973876953125,-0.2880859375,0.13427734375,1.40380859375,0.30517578125,-0.244140625
1534603000.180.974853515625,-0.291015625,0.13671875,1.55639648438,0.419616699219,-0.091552734375
1534603000.190.97314453125,-0.290771484375,0.13623046875,1.64031982422,0.473022460938,-0.114440917969
1534603000.190.97314453125,-0.290771484375,0.13623046875,1.74713134766,0.465393066406,-0.267028808594
1534603000.190.970947265625,-0.2900390625,0.139892578125,1.73950195312,0.396728515625,-0.381469726562
1534603000.190.968017578125,-0.290771484375,0.138916015625,1.56402587891,0.48828125,-0.434875488281
1534603000.190.968017578125,-0.290771484375,0.138916015625,1.39617919922,0.228881835938,-0.434875488281
1534603000.190.97119140625,-0.291015625,0.138671875,1.44195556641,0.18310546875,-0.556945800781
1534603000.190.97265625,-0.290283203125,0.140625,1.38092041016,0.42724609375,-0.495910644531
1534603000.190.974365234375,-0.28955078125,0.142333984375,1.49536132812,0.495910644531,-0.312805175781
1534603000.190.9755859375,-0.289306640625,0.14306640625,1.44195556641,0.518798828125,-0.434875488281
1534603000.190.976318359375,-0.290283203125,0.1435546875,1.42669677734,0.602722167969,-0.434875488281
1534603000.20.975341796875,-0.2890625,0.1416015625,1.57165527344,0.717163085938,-0.602722167969
1534603000.20.9697265625,-0.288330078125,0.141845703125,1.54113769531,0.511169433594,-0.656127929688
1534603000.20.968994140625,-0.289794921875,0.14111328125,1.23596191406,0.3662109375,-0.656127929688
1534603000.20.9716796875,-0.29052734375,0.139404296875,1.31225585938,0.42724609375,-0.495910644531
1534603000.20.970703125,-0.292236328125,0.136474609375,1.46484375,0.564575195312,-0.335693359375
1534603000.20.970703125,-0.2919921875,0.13671875,1.73187255859,0.785827636719,-0.434875488281
1534603000.20.973388671875,-0.286865234375,0.134765625,1.80053710938,0.625610351562,-0.480651855469
1534603000.20.97265625,-0.283935546875,0.1337890625,1.68609619141,0.633239746094,-0.419616699219
1534603000.20.970947265625,-0.288818359375,0.138916015625,1.48773193359,0.67138671875,-0.396728515625
1534603000.20.970947265625,-0.293701171875,0.144287109375,1.60980224609,0.633239746094,-0.564575195312
1534603000.210.970947265625,-0.2958984375,0.144287109375,1.52587890625,0.732421875,-0.541687011719
1534603000.210.9697265625,-0.291015625,0.139404296875,1.48773193359,0.717163085938,-0.587463378906
1534603000.210.97021484375,-0.28759765625,0.13916015625,1.49536132812,0.747680664062,-0.434875488281
1534603000.210.97216796875,-0.29052734375,0.139404296875,1.46484375,0.663757324219,-0.503540039062
1534603000.210.970703125,-0.29052734375,0.137451171875,1.51824951172,0.663757324219,-0.526428222656
1534603000.210.969970703125,-0.290283203125,0.13671875,1.48010253906,0.724792480469,-0.473022460938
1534603000.210.96875,-0.2890625,0.13916015625,1.48773193359,0.694274902344,-0.358581542969
1534603000.210.968994140625,-0.290771484375,0.138427734375,1.60217285156,0.648498535156,-0.54931640625
1534603000.210.970947265625,-0.29052734375,0.13671875,1.57165527344,0.701904296875,-0.785827636719
1534603000.210.972412109375,-0.286376953125,0.13623046875,1.44958496094,0.801086425781,-0.709533691406
1534603000.220.974609375,-0.28369140625,0.132568359375,1.59454345703,0.701904296875,-0.587463378906
1534603000.220.974609375,-0.284423828125,0.13623046875,1.56402587891,0.595092773438,-0.526428222656
1534603000.220.97314453125,-0.289794921875,0.1396484375,1.5869140625,0.526428222656,-0.503540039062
1534603000.220.971923828125,-0.289306640625,0.141845703125,1.66320800781,0.602722167969,-0.457763671875
1534603000.220.97216796875,-0.286376953125,0.14453125,1.64031982422,0.762939453125,-0.503540039062
1534603000.220.974365234375,-0.288330078125,0.138916015625,1.35040283203,0.67138671875,-0.709533691406
1534603000.230.97509765625,-0.289306640625,0.135498046875,1.38854980469,0.404357910156,-0.434875488281
1534603000.230.97412109375,-0.28955078125,0.1357421875,1.70135498047,0.785827636719,-0.648498535156
1534603000.230.9755859375,-0.288330078125,0.140869140625,1.49536132812,0.579833984375,-0.564575195312
1534603000.240.97509765625,-0.291015625,0.1435546875,1.40380859375,0.648498535156,-0.396728515625
1534603000.240.968994140625,-0.285400390625,0.13818359375,1.48010253906,0.6103515625,-0.541687011719
1534603000.240.9697265625,-0.286865234375,0.134765625,1.80816650391,0.450134277344,-0.564575195312
1534603000.240.97265625,-0.28759765625,0.139404296875,1.60217285156,0.396728515625,-0.602722167969
1534603000.240.973388671875,-0.2861328125,0.13818359375,1.48773193359,0.534057617188,-0.450134277344
1534603000.240.975341796875,-0.285888671875,0.14306640625,1.49536132812,0.686645507812,-0.404357910156
1534603000.240.97119140625,-0.2861328125,0.1416015625,1.33514404297,0.67138671875,-0.289916992188
1534603000.240.970458984375,-0.289306640625,0.1376953125,1.50299072266,0.328063964844,-0.335693359375
1534603000.250.97216796875,-0.2919921875,0.13818359375,1.72424316406,0.289916992188,-0.450134277344
1534603000.250.972900390625,-0.284912109375,0.138671875,1.77001953125,0.42724609375,-0.175476074219
1534603000.250.970947265625,-0.287109375,0.14111328125,1.48773193359,0.717163085938,-0.625610351562
1534603000.250.97265625,-0.28515625,0.13818359375,1.48773193359,0.534057617188,-0.556945800781
1534603000.260.97119140625,-0.284423828125,0.1396484375,1.54113769531,0.328063964844,-0.389099121094
1534603000.260.972900390625,-0.285400390625,0.14111328125,1.52587890625,0.221252441406,-0.251770019531
1534603000.260.974365234375,-0.287109375,0.140625,1.35803222656,0.778198242188,-0.358581542969
1534603000.260.975830078125,-0.288818359375,0.140625,1.46484375,0.801086425781,-0.42724609375
1534603000.260.9736328125,-0.28955078125,0.1357421875,1.52587890625,0.48828125,-0.404357910156
1534603000.260.973876953125,-0.287353515625,0.13671875,1.47247314453,0.48828125,-0.30517578125
1534603000.270.97265625,-0.288330078125,0.13427734375,1.41143798828,0.442504882812,-0.511169433594
1534603000.270.971435546875,-0.287109375,0.13671875,1.51062011719,0.411987304688,-0.267028808594
1534603000.270.972900390625,-0.288818359375,0.137939453125,1.72424316406,0.511169433594,-0.251770019531
1534603000.270.97216796875,-0.28759765625,0.13330078125,1.63269042969,0.663757324219,-0.3662109375
1534603000.270.968994140625,-0.28759765625,0.139404296875,1.68609619141,0.579833984375,-0.389099121094
1534603000.270.968505859375,-0.289306640625,0.14111328125,1.83868408203,0.518798828125,-0.167846679688
1534603000.270.9716796875,-0.28857421875,0.138671875,1.76239013672,0.663757324219,-0.18310546875
1534603000.280.9697265625,-0.289306640625,0.13818359375,1.57928466797,0.503540039062,-0.175476074219
1534603000.280.970947265625,-0.287841796875,0.1328125,1.50299072266,0.251770019531,-0.3662109375
1534603000.280.972900390625,-0.28515625,0.1337890625,1.54876708984,0.343322753906,-0.267028808594
1534603000.280.971923828125,-0.287109375,0.138916015625,1.54876708984,0.701904296875,-0.175476074219
1534603000.280.9736328125,-0.2880859375,0.142578125,1.56402587891,0.602722167969,-0.106811523438
1534603000.280.9765625,-0.287841796875,0.137939453125,1.59454345703,0.465393066406,-0.328063964844
1534603000.280.9736328125,-0.292724609375,0.136962890625,1.55639648438,0.450134277344,-0.343322753906
1534603000.280.970458984375,-0.291748046875,0.142578125,1.57165527344,0.541687011719,-0.198364257812
1534603000.280.96826171875,-0.28759765625,0.143310546875,1.55639648438,0.541687011719,-0.190734863281
1534603000.280.96875,-0.28857421875,0.141845703125,1.48010253906,0.320434570312,-0.350952148438
1534603000.290.971923828125,-0.2880859375,0.136962890625,1.48773193359,0.411987304688,-0.42724609375
1534603000.290.972412109375,-0.28515625,0.135986328125,1.55639648438,0.778198242188,-0.465393066406
1534603000.290.97265625,-0.284423828125,0.140869140625,1.49536132812,0.785827636719,-0.328063964844
1534603000.290.974609375,-0.286376953125,0.141357421875,1.50299072266,0.518798828125,-0.228881835938
1534603000.290.969482421875,-0.284423828125,0.140625,1.38092041016,0.175476074219,-0.274658203125
1534603000.290.971435546875,-0.287109375,0.140869140625,1.49536132812,0.54931640625,-0.289916992188
1534603000.290.970703125,-0.290771484375,0.13623046875,1.56402587891,0.389099121094,-0.0991821289062
1534603000.30.970703125,-0.28857421875,0.13525390625,1.66320800781,0.289916992188,-0.0457763671875
1534603000.30.9716796875,-0.288330078125,0.136474609375,1.67846679688,0.205993652344,-0.350952148438
1534603000.30.971435546875,-0.29248046875,0.140869140625,1.45721435547,0.267028808594,-0.503540039062
1534603000.30.974609375,-0.291259765625,0.13916015625,1.31988525391,0.350952148438,-0.251770019531
1534603000.30.97802734375,-0.29052734375,0.13671875,1.43432617188,0.495910644531,-0.0534057617188
1534603000.30.974609375,-0.293212890625,0.1376953125,1.67846679688,0.511169433594,-0.106811523438
1534603000.30.970703125,-0.29443359375,0.132568359375,1.87683105469,0.633239746094,-0.152587890625
1534603000.30.97265625,-0.290283203125,0.133056640625,1.87683105469,0.724792480469,-0.0152587890625
1534603000.30.975830078125,-0.288818359375,0.138671875,1.76239013672,0.442504882812,-0.1220703125
1534603000.30.973388671875,-0.291259765625,0.138427734375,1.52587890625,0.267028808594,-0.213623046875
1534603000.310.973388671875,-0.2880859375,0.1357421875,1.39617919922,0.343322753906,-0.411987304688
1534603000.310.970703125,-0.286865234375,0.135498046875,1.48010253906,0.434875488281,-0.495910644531
1534603000.310.969970703125,-0.291015625,0.134765625,1.48010253906,0.343322753906,-0.251770019531
1534603000.310.9755859375,-0.291015625,0.139892578125,1.46484375,0.129699707031,-0.205993652344
1534603000.310.973388671875,-0.289306640625,0.142578125,1.73187255859,0.42724609375,-0.312805175781
1534603000.310.969970703125,-0.29150390625,0.13916015625,1.76239013672,0.595092773438,-0.274658203125
1534603000.310.968505859375,-0.290771484375,0.136474609375,1.48773193359,0.640869140625,-0.0686645507812
1534603000.310.968505859375,-0.29052734375,0.136962890625,1.54876708984,0.747680664062,-0.129699707031
1534603000.310.970703125,-0.29248046875,0.139892578125,1.63269042969,0.564575195312,-0.30517578125
1534603000.310.972412109375,-0.288818359375,0.1376953125,1.64031982422,0.564575195312,-0.411987304688
1534603000.320.973876953125,-0.288330078125,0.13916015625,1.55639648438,0.54931640625,-0.358581542969
1534603000.320.974853515625,-0.291259765625,0.140625,1.64794921875,0.450134277344,-0.30517578125
1534603000.320.97509765625,-0.288330078125,0.137451171875,1.50299072266,0.473022460938,-0.381469726562
1534603000.320.972412109375,-0.28466796875,0.1337890625,1.37329101562,0.465393066406,-0.274658203125
1534603000.320.9716796875,-0.28759765625,0.139404296875,1.57928466797,0.373840332031,-0.18310546875
1534603000.320.97314453125,-0.29345703125,0.141357421875,1.61743164062,0.54931640625,-0.373840332031
1534603000.320.971923828125,-0.291015625,0.133544921875,1.51062011719,0.709533691406,-0.625610351562
1534603000.320.97412109375,-0.288818359375,0.13623046875,1.41906738281,0.762939453125,-0.48828125
1534603000.320.97607421875,-0.292724609375,0.137939453125,1.35803222656,0.724792480469,-0.3662109375
1534603000.320.974853515625,-0.294189453125,0.13232421875,1.29699707031,0.663757324219,-0.373840332031
1534603000.330.97509765625,-0.29150390625,0.13134765625,1.3427734375,0.656127929688,-0.358581542969
1534603000.330.974853515625,-0.292236328125,0.137451171875,1.47247314453,0.640869140625,-0.350952148438
1534603000.330.97412109375,-0.292236328125,0.141357421875,1.63269042969,0.572204589844,-0.480651855469
1534603000.330.97412109375,-0.288818359375,0.139892578125,1.61743164062,0.495910644531,-0.587463378906
1534603000.330.97509765625,-0.28857421875,0.140869140625,1.55639648438,0.617980957031,-0.450134277344
1534603000.330.97119140625,-0.288330078125,0.142333984375,1.43432617188,0.724792480469,-0.747680664062
1534603000.330.971435546875,-0.291015625,0.138671875,1.37329101562,0.442504882812,-0.762939453125
1534603000.330.975830078125,-0.291015625,0.135009765625,1.38092041016,0.396728515625,-0.648498535156
1534603000.330.9716796875,-0.28857421875,0.137939453125,1.52587890625,0.396728515625,-0.54931640625
1534603000.330.96875,-0.288818359375,0.138671875,1.56402587891,0.648498535156,-0.312805175781
1534603000.340.971923828125,-0.287109375,0.13671875,1.57928466797,0.968933105469,-0.442504882812
1534603000.340.9736328125,-0.28662109375,0.1376953125,1.54113769531,1.02233886719,-0.686645507812
1534603000.340.972412109375,-0.2880859375,0.138671875,1.57928466797,0.907897949219,-0.640869140625
1534603000.340.972900390625,-0.287841796875,0.13671875,1.43432617188,0.8544921875,-0.587463378906
1534603000.340.968994140625,-0.287109375,0.1357421875,1.42669677734,0.778198242188,-0.564575195312
1534603000.340.970703125,-0.287109375,0.137939453125,1.60217285156,0.534057617188,-0.587463378906
1534603000.340.97607421875,-0.288818359375,0.136962890625,1.56402587891,0.54931640625,-0.473022460938
1534603000.340.97412109375,-0.291015625,0.134765625,1.57928466797,0.717163085938,-0.625610351562
1534603000.340.9736328125,-0.2890625,0.135009765625,1.67083740234,0.663757324219,-0.801086425781
1534603000.340.97412109375,-0.28759765625,0.13427734375,1.38854980469,0.823974609375,-0.724792480469
1534603000.350.972900390625,-0.2890625,0.13427734375,1.25122070312,0.984191894531,-0.434875488281
1534603000.350.97412109375,-0.288330078125,0.1357421875,1.41906738281,0.8544921875,-0.503540039062
1534603000.350.97314453125,-0.283935546875,0.1337890625,1.56402587891,0.595092773438,-0.640869140625
1534603000.350.970947265625,-0.281982421875,0.1357421875,1.56402587891,0.724792480469,-0.663757324219
1534603000.350.969482421875,-0.282470703125,0.135009765625,1.56402587891,0.686645507812,-0.701904296875
1534603000.350.96826171875,-0.28173828125,0.136474609375,1.47247314453,0.747680664062,-0.770568847656
1534603000.350.970458984375,-0.284423828125,0.140625,1.25122070312,0.762939453125,-0.564575195312
1534603000.350.968994140625,-0.289306640625,0.13818359375,1.17492675781,0.885009765625,-0.511169433594
1534603000.350.9697265625,-0.28857421875,0.134033203125,1.19018554688,1.06048583984,-0.640869140625
1534603000.350.974853515625,-0.286376953125,0.13330078125,1.54876708984,1.17492675781,-0.709533691406
1534603000.360.974609375,-0.28515625,0.14013671875,1.67846679688,0.877380371094,-0.6103515625
1534603000.360.97314453125,-0.282470703125,0.140625,1.67083740234,0.640869140625,-0.480651855469
1534603000.360.973388671875,-0.2841796875,0.13818359375,1.60217285156,0.656127929688,-0.503540039062
1534603000.360.9697265625,-0.284423828125,0.13623046875,1.49536132812,0.709533691406,-0.534057617188
1534603000.360.97216796875,-0.28173828125,0.136962890625,1.48773193359,0.816345214844,-0.801086425781
1534603000.360.9765625,-0.283935546875,0.14208984375,1.48773193359,0.694274902344,-0.839233398438
1534603000.360.9736328125,-0.28515625,0.143310546875,1.56402587891,0.656127929688,-0.67138671875
1534603000.360.970458984375,-0.286376953125,0.138671875,1.64031982422,0.473022460938,-0.770568847656
1534603000.360.971923828125,-0.288330078125,0.134521484375,1.57928466797,0.511169433594,-0.839233398438
1534603000.360.97314453125,-0.28857421875,0.1357421875,1.47247314453,0.556945800781,-0.526428222656
1534603000.360.972412109375,-0.2880859375,0.1357421875,1.71661376953,0.625610351562,-0.503540039062
1534603000.370.970458984375,-0.28759765625,0.134521484375,1.64794921875,0.885009765625,-0.434875488281
1534603000.370.970458984375,-0.28759765625,0.134521484375,1.54876708984,0.808715820312,-0.48828125
1534603000.370.977294921875,-0.286376953125,0.1396484375,1.5869140625,0.663757324219,-0.686645507812
1534603000.370.977294921875,-0.286376953125,0.1396484375,1.51824951172,0.556945800781,-0.617980957031
1534603000.370.97802734375,-0.2861328125,0.13818359375,1.5869140625,0.526428222656,-0.434875488281
1534603000.370.974365234375,-0.28515625,0.1396484375,1.50299072266,0.534057617188,-0.473022460938
1534603000.370.971923828125,-0.283203125,0.14013671875,1.53350830078,0.755310058594,-0.572204589844
1534603000.370.97509765625,-0.2841796875,0.13720703125,1.48773193359,0.67138671875,-0.740051269531
1534603000.370.973388671875,-0.287109375,0.13623046875,1.31225585938,0.602722167969,-0.709533691406
1534603000.380.9736328125,-0.28515625,0.13623046875,1.70135498047,0.495910644531,-0.221252441406
1534603000.380.972412109375,-0.287841796875,0.138671875,1.36566162109,0.396728515625,-0.274658203125
1534603000.390.977294921875,-0.2880859375,0.140625,1.55639648438,0.595092773438,-0.175476074219
1534603000.390.974365234375,-0.288330078125,0.13916015625,1.63269042969,0.343322753906,0.0686645507812
1534603000.390.970947265625,-0.2900390625,0.141357421875,1.44195556641,0.42724609375,-0.396728515625
1534603000.390.970703125,-0.29150390625,0.142822265625,1.60217285156,0.312805175781,-0.190734863281
1534603000.390.972900390625,-0.292724609375,0.14111328125,1.67083740234,0.373840332031,-0.244140625
1534603000.390.9736328125,-0.28955078125,0.13916015625,1.52587890625,0.480651855469,-0.221252441406
1534603000.40.971923828125,-0.288818359375,0.13818359375,1.87683105469,0.328063964844,-0.0381469726562
1534603000.40.968994140625,-0.289306640625,0.13720703125,1.85394287109,0.419616699219,0.030517578125
1534603000.40.970703125,-0.291748046875,0.140625,1.52587890625,0.335693359375,-0.144958496094
1534603000.40.9736328125,-0.29052734375,0.142822265625,1.57928466797,0.251770019531,-0.0839233398438
1534603000.40.968994140625,-0.288330078125,0.144287109375,1.57165527344,0.030517578125,-0.0686645507812
1534603000.40.9697265625,-0.290283203125,0.14306640625,1.5869140625,0.160217285156,-0.144958496094
1534603000.40.972900390625,-0.29248046875,0.1396484375,1.60980224609,0.282287597656,-0.106811523438
1534603000.410.97314453125,-0.287353515625,0.138427734375,1.70135498047,0.144958496094,0.358581542969
1534603000.410.9736328125,-0.290771484375,0.139404296875,1.70135498047,0.335693359375,0.0228881835938
1534603000.410.968994140625,-0.2890625,0.14208984375,1.67083740234,0.152587890625,0.030517578125
1534603000.410.966552734375,-0.286376953125,0.142578125,1.67846679688,0.274658203125,-0.00762939453125
1534603000.410.97021484375,-0.2900390625,0.14306640625,1.64031982422,0.335693359375,0.0686645507812
1534603000.410.971923828125,-0.29150390625,0.134765625,1.79290771484,0.473022460938,-0.106811523438
1534603000.420.972412109375,-0.290771484375,0.134765625,1.60217285156,0.358581542969,-0.190734863281
1534603000.420.971435546875,-0.28857421875,0.139404296875,1.51824951172,0.0991821289062,0.0152587890625
1534603000.420.971435546875,-0.288818359375,0.13916015625,1.51062011719,0.0152587890625,0.129699707031
1534603000.420.97119140625,-0.29052734375,0.13623046875,1.30462646484,0.251770019531,0.0534057617188
1534603000.420.97216796875,-0.29052734375,0.142333984375,1.51062011719,0.442504882812,-0.389099121094
1534603000.430.971435546875,-0.29345703125,0.139892578125,1.74713134766,0.373840332031,-0.457763671875
1534603000.430.972412109375,-0.291748046875,0.14111328125,1.59454345703,0.3662109375,-0.518798828125
1534603000.430.9755859375,-0.290771484375,0.134521484375,1.44195556641,0.411987304688,-0.320434570312
1534603000.430.973876953125,-0.287841796875,0.139892578125,1.44958496094,0.54931640625,-0.411987304688
1534603000.430.971435546875,-0.288818359375,0.138427734375,1.35040283203,0.518798828125,-0.518798828125
1534603000.430.97412109375,-0.289794921875,0.135986328125,1.55639648438,0.495910644531,-0.518798828125
1534603000.430.9716796875,-0.288818359375,0.13623046875,1.5869140625,0.625610351562,-0.724792480469
1534603000.430.970947265625,-0.291015625,0.137451171875,1.45721435547,0.358581542969,-0.877380371094
1534603000.430.97412109375,-0.2919921875,0.140869140625,1.51062011719,0.556945800781,-0.869750976562
1534603000.440.971923828125,-0.288330078125,0.1435546875,1.51062011719,0.762939453125,-0.640869140625
1534603000.440.972412109375,-0.28564453125,0.14404296875,1.44195556641,0.885009765625,-0.694274902344
1534603000.440.97021484375,-0.2900390625,0.137939453125,1.51824951172,0.9765625,-0.877380371094
1534603000.440.974609375,-0.285888671875,0.140869140625,1.64031982422,0.778198242188,-0.839233398438
1534603000.440.976318359375,-0.2890625,0.133056640625,1.59454345703,0.762939453125,-0.846862792969
1534603000.440.9736328125,-0.290283203125,0.13330078125,1.46484375,0.862121582031,-0.961303710938
1534603000.440.972900390625,-0.287841796875,0.1376953125,1.37329101562,0.930786132812,-0.823974609375
1534603000.440.973388671875,-0.28759765625,0.13916015625,1.57928466797,0.999450683594,-0.8544921875
1534603000.440.9736328125,-0.288818359375,0.135498046875,1.43432617188,0.968933105469,-0.923156738281
1534603000.450.971435546875,-0.283447265625,0.13232421875,1.64031982422,0.732421875,-1.01470947266
1534603000.450.970947265625,-0.2822265625,0.134521484375,1.78527832031,0.679016113281,-1.04522705078
1534603000.450.9736328125,-0.287353515625,0.135986328125,1.83868408203,0.938415527344,-1.02233886719
1534603000.450.97119140625,-0.28857421875,0.13671875,1.63269042969,1.15966796875,-0.938415527344
1534603000.450.97119140625,-0.285888671875,0.138671875,1.49536132812,1.19781494141,-0.8544921875
1534603000.450.972900390625,-0.28515625,0.138671875,1.48773193359,1.02233886719,-0.885009765625
1534603000.450.9736328125,-0.28662109375,0.13525390625,1.53350830078,0.991821289062,-0.877380371094
1534603000.450.974853515625,-0.289794921875,0.133056640625,1.52587890625,1.220703125,-1.12915039062
1534603000.450.97412109375,-0.290283203125,0.136962890625,1.59454345703,1.07574462891,-1.06811523438
1534603000.450.97119140625,-0.287109375,0.136962890625,1.55639648438,1.07574462891,-1.10626220703
1534603000.460.968505859375,-0.286865234375,0.13427734375,1.54876708984,1.02233886719,-0.968933105469
1534603000.460.96923828125,-0.28662109375,0.134765625,1.57928466797,1.06811523438,-0.755310058594
1534603000.460.970947265625,-0.28466796875,0.140869140625,1.48010253906,1.00708007812,-0.907897949219
1534603000.460.97265625,-0.28515625,0.142578125,1.60217285156,1.09100341797,-0.991821289062
1534603000.460.974853515625,-0.28564453125,0.13916015625,1.62506103516,0.953674316406,-0.79345703125
1534603000.460.970703125,-0.285400390625,0.1396484375,1.63269042969,1.02996826172,-0.816345214844
1534603000.460.970703125,-0.287109375,0.139892578125,1.60980224609,1.12915039062,-0.717163085938
1534603000.460.975830078125,-0.2841796875,0.14208984375,1.57928466797,1.18255615234,-0.595092773438
1534603000.460.97509765625,-0.281982421875,0.1416015625,1.48773193359,1.15966796875,-0.625610351562
1534603000.460.97314453125,-0.282470703125,0.13916015625,1.44195556641,0.907897949219,-0.801086425781
1534603000.470.97314453125,-0.282470703125,0.13916015625,1.36566162109,0.694274902344,-0.816345214844
1534603000.470.97021484375,-0.28173828125,0.140380859375,1.44958496094,0.617980957031,-0.900268554688
1534603000.470.971435546875,-0.281982421875,0.14306640625,1.45721435547,0.686645507812,-1.02233886719
1534603000.470.97314453125,-0.284423828125,0.142578125,1.51062011719,0.846862792969,-0.831604003906
1534603000.470.97412109375,-0.28857421875,0.13916015625,1.54876708984,0.991821289062,-0.556945800781
1534603000.470.975830078125,-0.2880859375,0.135986328125,1.56402587891,0.885009765625,-0.411987304688
1534603000.470.9755859375,-0.285400390625,0.140625,1.67083740234,0.831604003906,-0.320434570312
1534603000.470.974853515625,-0.283203125,0.141845703125,1.49536132812,0.709533691406,-0.396728515625
1534603000.470.971435546875,-0.28125,0.137451171875,1.45721435547,0.694274902344,-0.457763671875
1534603000.470.9697265625,-0.28271484375,0.14111328125,1.54113769531,0.503540039062,-0.518798828125
1534603000.470.9697265625,-0.28369140625,0.141845703125,1.708984375,0.480651855469,-0.465393066406
1534603000.480.97021484375,-0.283447265625,0.141357421875,1.52587890625,0.556945800781,-0.213623046875
1534603000.480.97216796875,-0.283203125,0.13330078125,1.54876708984,0.213623046875,-0.434875488281
1534603000.480.97509765625,-0.288818359375,0.140380859375,1.75476074219,0.267028808594,-0.358581542969
1534603000.480.97412109375,-0.285400390625,0.1435546875,1.76239013672,0.3662109375,-0.0457763671875
1534603000.480.970947265625,-0.286865234375,0.142822265625,1.64031982422,0.450134277344,0.144958496094
1534603000.480.972900390625,-0.28759765625,0.139892578125,1.54876708984,0.259399414062,-0.106811523438
1534603000.480.97412109375,-0.28857421875,0.140380859375,1.31225585938,0.160217285156,-0.18310546875
1534603000.490.972412109375,-0.288330078125,0.14013671875,1.24359130859,0.289916992188,0.00762939453125
1534603000.490.9697265625,-0.285888671875,0.1416015625,1.40380859375,0.3662109375,0.129699707031
1534603000.490.972900390625,-0.286865234375,0.141357421875,1.67846679688,0.312805175781,-0.0381469726562
1534603000.490.976806640625,-0.28369140625,0.137939453125,1.78527832031,0.0152587890625,-0.167846679688
1534603000.490.973388671875,-0.282470703125,0.138671875,1.64794921875,0.0686645507812,-0.175476074219
1534603000.490.975341796875,-0.2861328125,0.138916015625,1.63269042969,0.0839233398438,-0.114440917969
1534603000.490.975830078125,-0.283935546875,0.13720703125,1.67083740234,0.289916992188,-0.0686645507812
1534603000.490.969482421875,-0.28515625,0.13916015625,1.61743164062,0.282287597656,0.0686645507812
1534603000.490.9716796875,-0.2880859375,0.137939453125,1.31988525391,0.213623046875,-0.0381469726562
1534603000.490.975830078125,-0.2841796875,0.13525390625,1.16729736328,0.114440917969,-0.175476074219
1534603000.490.974365234375,-0.28271484375,0.136474609375,1.37329101562,0.0457763671875,-0.0762939453125
1534603000.50.97705078125,-0.28369140625,0.14013671875,1.31988525391,0.18310546875,0.0534057617188
1534603000.50.9765625,-0.287353515625,0.140869140625,1.44958496094,0.3662109375,0.0381469726562
1534603000.50.97509765625,-0.289306640625,0.136962890625,1.51824951172,0.42724609375,-0.0381469726562
1534603000.50.97705078125,-0.2861328125,0.133544921875,1.5869140625,0.518798828125,-0.0381469726562
1534603000.50.9755859375,-0.284912109375,0.134521484375,1.54876708984,0.381469726562,-0.0534057617188
1534603000.50.97314453125,-0.289794921875,0.134521484375,1.48010253906,0.106811523438,-0.0686645507812
1534603000.50.970458984375,-0.292236328125,0.13720703125,1.38092041016,0.129699707031,0.0381469726562
1534603000.50.973876953125,-0.2890625,0.13916015625,1.44195556641,0.389099121094,-0.091552734375
1534603000.50.9775390625,-0.288330078125,0.13623046875,1.41143798828,0.396728515625,-0.175476074219
1534603000.50.974853515625,-0.288330078125,0.13720703125,1.52587890625,0.465393066406,-0.114440917969
1534603000.510.972900390625,-0.2880859375,0.138671875,1.53350830078,0.556945800781,-0.0762939453125
1534603000.510.974365234375,-0.287841796875,0.140625,1.39617919922,0.411987304688,-0.106811523438
1534603000.510.973388671875,-0.2841796875,0.14111328125,1.62506103516,0.381469726562,0.0762939453125
1534603000.510.9716796875,-0.284912109375,0.137451171875,1.73187255859,0.442504882812,-0.0839233398438
1534603000.510.9716796875,-0.28662109375,0.14111328125,1.73187255859,0.42724609375,-0.221252441406
1534603000.510.972412109375,-0.286376953125,0.142578125,1.64031982422,0.30517578125,-0.0762939453125
1534603000.510.97265625,-0.28759765625,0.141357421875,1.65557861328,0.205993652344,-0.137329101562
1534603000.510.973876953125,-0.28515625,0.140625,1.69372558594,0.419616699219,-0.213623046875
1534603000.510.97607421875,-0.28662109375,0.136962890625,1.66320800781,0.48828125,-0.213623046875
1534603000.510.973388671875,-0.28857421875,0.138427734375,1.68609619141,0.595092773438,-0.312805175781
1534603000.520.972412109375,-0.28759765625,0.1396484375,1.64794921875,0.640869140625,-0.244140625
1534603000.520.975341796875,-0.286376953125,0.139404296875,1.38092041016,0.625610351562,-0.297546386719
1534603000.520.974853515625,-0.289794921875,0.141357421875,1.38092041016,0.770568847656,-0.3662109375
1534603000.520.9755859375,-0.29052734375,0.142333984375,1.59454345703,0.755310058594,-0.320434570312
1534603000.520.975341796875,-0.2880859375,0.140625,1.70135498047,0.701904296875,-0.175476074219
1534603000.520.970703125,-0.28857421875,0.1376953125,1.56402587891,0.633239746094,-0.267028808594
1534603000.520.9697265625,-0.284912109375,0.13525390625,1.52587890625,0.518798828125,-0.457763671875
1534603000.520.970703125,-0.2841796875,0.13525390625,1.52587890625,0.679016113281,-0.411987304688
1534603000.520.9697265625,-0.286376953125,0.13330078125,1.60217285156,0.740051269531,-0.343322753906
1534603000.530.97314453125,-0.2880859375,0.13427734375,1.27410888672,0.732421875,-0.595092773438
1534603000.530.97265625,-0.29248046875,0.13330078125,1.59454345703,0.648498535156,-0.30517578125
1534603000.540.972412109375,-0.29150390625,0.140380859375,1.64794921875,0.495910644531,-0.633239746094
1534603000.540.970947265625,-0.288818359375,0.13720703125,1.71661376953,0.480651855469,-0.556945800781
1534603000.540.96923828125,-0.287109375,0.1357421875,1.79290771484,0.823974609375,-0.450134277344
1534603000.540.97314453125,-0.2890625,0.140380859375,1.70135498047,0.679016113281,-0.694274902344
1534603000.540.973876953125,-0.29443359375,0.140625,1.48773193359,0.495910644531,-0.495910644531
1534603000.540.971435546875,-0.29052734375,0.139892578125,1.20544433594,0.556945800781,-0.373840332031
1534603000.540.97412109375,-0.2919921875,0.135009765625,1.40380859375,0.686645507812,-0.335693359375
1534603000.550.9736328125,-0.2919921875,0.137939453125,1.54113769531,0.686645507812,-0.396728515625
1534603000.550.97265625,-0.291015625,0.140380859375,1.51062011719,0.480651855469,-0.587463378906
1534603000.550.974853515625,-0.287841796875,0.13818359375,1.54113769531,0.267028808594,-0.495910644531
1534603000.550.97314453125,-0.285888671875,0.142578125,1.21307373047,0.526428222656,-0.526428222656
1534603000.550.973388671875,-0.289306640625,0.1357421875,1.47247314453,0.79345703125,-0.534057617188
1534603000.560.96826171875,-0.288330078125,0.13330078125,1.77001953125,0.709533691406,-0.54931640625
1534603000.560.97216796875,-0.292236328125,0.14208984375,1.35040283203,0.587463378906,-0.48828125
1534603000.560.97216796875,-0.286376953125,0.13720703125,1.67846679688,0.656127929688,-0.434875488281
1534603000.560.97265625,-0.281494140625,0.13720703125,1.61743164062,0.79345703125,-0.503540039062
1534603000.560.97216796875,-0.28369140625,0.141845703125,1.39617919922,0.595092773438,-0.450134277344
1534603000.570.9716796875,-0.287109375,0.14013671875,1.56402587891,0.495910644531,-0.3662109375
1534603000.570.97216796875,-0.2900390625,0.14111328125,1.76239013672,0.541687011719,-0.373840332031
1534603000.570.972900390625,-0.286865234375,0.14208984375,1.69372558594,0.534057617188,-0.617980957031
1534603000.570.976318359375,-0.2880859375,0.13818359375,1.48773193359,0.6103515625,-0.679016113281
1534603000.570.978759765625,-0.2890625,0.13720703125,1.57928466797,0.541687011719,-0.564575195312
1534603000.570.976318359375,-0.28857421875,0.141845703125,1.69372558594,0.625610351562,-0.312805175781
1534603000.570.97265625,-0.287841796875,0.1376953125,1.48010253906,0.411987304688,-0.503540039062
1534603000.580.970458984375,-0.28466796875,0.137939453125,1.55639648438,0.648498535156,-0.328063964844
1534603000.580.96826171875,-0.2880859375,0.134765625,1.3427734375,0.503540039062,-0.312805175781
1534603000.580.970947265625,-0.290283203125,0.1416015625,1.44195556641,0.358581542969,-0.518798828125
1534603000.580.974853515625,-0.2900390625,0.145263671875,1.67846679688,0.465393066406,-0.495910644531
1534603000.580.9765625,-0.28955078125,0.1435546875,1.73950195312,0.541687011719,-0.526428222656
1534603000.580.97412109375,-0.286376953125,0.137451171875,1.49536132812,0.602722167969,-0.297546386719
1534603000.580.9716796875,-0.285400390625,0.134765625,1.56402587891,0.503540039062,-0.404357910156
1534603000.580.9697265625,-0.28515625,0.136474609375,1.45721435547,0.556945800781,-0.3662109375
1534603000.580.971435546875,-0.285400390625,0.135986328125,1.47247314453,0.686645507812,-0.358581542969
1534603000.580.976318359375,-0.2880859375,0.14013671875,1.53350830078,0.564575195312,-0.30517578125
1534603000.590.973388671875,-0.287353515625,0.140380859375,1.46484375,0.350952148438,-0.54931640625
1534603000.590.973388671875,-0.285400390625,0.134033203125,1.57165527344,0.465393066406,-0.602722167969
1534603000.590.9775390625,-0.28564453125,0.13427734375,1.65557861328,0.54931640625,-0.602722167969
1534603000.590.974609375,-0.28857421875,0.138427734375,1.60217285156,0.534057617188,-0.541687011719
1534603000.590.970703125,-0.287841796875,0.1357421875,1.55639648438,0.389099121094,-0.465393066406
1534603000.590.9716796875,-0.284912109375,0.134033203125,1.57928466797,0.457763671875,-0.495910644531
1534603000.590.971923828125,-0.287353515625,0.13525390625,1.29699707031,0.54931640625,-0.465393066406
1534603000.590.97119140625,-0.28955078125,0.1328125,1.27410888672,0.709533691406,-0.320434570312
1534603000.590.973388671875,-0.28662109375,0.13427734375,1.49536132812,0.808715820312,-0.18310546875
1534603000.60.97314453125,-0.285888671875,0.138916015625,1.54876708984,0.709533691406,-0.282287597656
1534603000.60.97216796875,-0.286376953125,0.138671875,1.73950195312,0.526428222656,-0.373840332031
1534603000.60.975830078125,-0.2841796875,0.1357421875,1.61743164062,0.511169433594,-0.6103515625
1534603000.60.977783203125,-0.284912109375,0.1337890625,1.18255615234,0.602722167969,-0.656127929688
1534603000.60.97705078125,-0.2861328125,0.132080078125,1.35803222656,0.686645507812,-0.473022460938
1534603000.60.974853515625,-0.284912109375,0.134033203125,1.51062011719,0.755310058594,-0.572204589844
1534603000.60.97216796875,-0.284912109375,0.13623046875,1.51062011719,0.617980957031,-0.419616699219
1534603000.60.969970703125,-0.287353515625,0.136474609375,1.5869140625,0.480651855469,-0.152587890625
1534603000.60.97021484375,-0.288330078125,0.13623046875,1.61743164062,0.251770019531,-0.289916992188
1534603000.60.971923828125,-0.28759765625,0.13671875,1.51062011719,0.511169433594,-0.3662109375
1534603000.60.971435546875,-0.284423828125,0.137939453125,1.64794921875,0.6103515625,-0.534057617188
1534603000.610.970947265625,-0.28369140625,0.136962890625,1.66320800781,0.663757324219,-0.625610351562
1534603000.610.973876953125,-0.287353515625,0.1376953125,1.46484375,0.617980957031,-0.473022460938
1534603000.610.973388671875,-0.2880859375,0.137939453125,1.28173828125,0.579833984375,-0.495910644531
1534603000.610.970703125,-0.28564453125,0.138427734375,1.35040283203,0.54931640625,-0.442504882812
1534603000.610.973388671875,-0.283203125,0.135986328125,1.36566162109,0.595092773438,-0.457763671875
1534603000.610.9775390625,-0.28515625,0.135986328125,1.44195556641,0.656127929688,-0.373840332031
1534603000.610.97607421875,-0.287353515625,0.14404296875,1.54113769531,0.473022460938,-0.503540039062
1534603000.610.971435546875,-0.28662109375,0.140625,1.62506103516,0.495910644531,-0.602722167969
1534603000.610.9697265625,-0.28564453125,0.134765625,1.54113769531,0.587463378906,-0.48828125
1534603000.610.97119140625,-0.286376953125,0.13720703125,1.74713134766,0.480651855469,-0.42724609375
1534603000.620.9765625,-0.287841796875,0.13427734375,1.53350830078,0.404357910156,-0.411987304688
1534603000.620.976806640625,-0.28564453125,0.1318359375,1.38092041016,0.579833984375,-0.465393066406
1534603000.620.9736328125,-0.2822265625,0.135498046875,1.44195556641,0.679016113281,-0.663757324219
1534603000.620.97705078125,-0.283447265625,0.13916015625,1.36566162109,0.663757324219,-0.656127929688
1534603000.620.97998046875,-0.28759765625,0.13916015625,1.29699707031,0.564575195312,-0.595092773438
1534603000.620.97412109375,-0.2900390625,0.14013671875,1.42669677734,0.656127929688,-0.564575195312
1534603000.620.96923828125,-0.28662109375,0.138916015625,1.64031982422,0.801086425781,-0.48828125
1534603000.620.9716796875,-0.286865234375,0.143310546875,1.67083740234,0.846862792969,-0.411987304688
1534603000.620.972412109375,-0.287109375,0.14404296875,1.53350830078,0.839233398438,-0.534057617188
1534603000.620.9716796875,-0.28466796875,0.142578125,1.31225585938,0.450134277344,-0.740051269531
1534603000.630.9736328125,-0.2841796875,0.142822265625,1.41143798828,0.320434570312,-0.732421875
1534603000.630.975830078125,-0.28369140625,0.136962890625,1.47247314453,0.480651855469,-0.625610351562
1534603000.630.975830078125,-0.287353515625,0.13671875,1.59454345703,0.869750976562,-0.526428222656
1534603000.630.973388671875,-0.29052734375,0.135986328125,1.44958496094,0.961303710938,-0.442504882812
1534603000.630.970703125,-0.285888671875,0.137451171875,1.50299072266,0.602722167969,-0.465393066406
1534603000.630.97216796875,-0.282470703125,0.14111328125,1.40380859375,0.434875488281,-0.389099121094
1534603000.630.970458984375,-0.286865234375,0.13916015625,1.38854980469,0.762939453125,-0.541687011719
1534603000.630.969970703125,-0.28857421875,0.136962890625,1.54876708984,0.823974609375,-0.633239746094
1534603000.630.974609375,-0.289306640625,0.135498046875,1.72424316406,0.740051269531,-0.228881835938
1534603000.630.974365234375,-0.287353515625,0.134765625,1.67846679688,0.564575195312,-0.129699707031
1534603000.640.9716796875,-0.284423828125,0.138427734375,1.60217285156,0.694274902344,-0.274658203125
1534603000.640.97119140625,-0.287109375,0.139404296875,1.48773193359,0.633239746094,-0.221252441406
1534603000.640.97216796875,-0.29052734375,0.135986328125,1.60980224609,0.503540039062,-0.297546386719
1534603000.640.97314453125,-0.2890625,0.133544921875,1.74713134766,0.54931640625,-0.541687011719
1534603000.640.97314453125,-0.282958984375,0.13525390625,1.57928466797,0.473022460938,-0.358581542969
1534603000.640.97509765625,-0.28125,0.141357421875,1.67083740234,0.694274902344,-0.289916992188
1534603000.640.97802734375,-0.284423828125,0.141357421875,1.708984375,0.648498535156,-0.289916992188
1534603000.640.973876953125,-0.2841796875,0.13818359375,1.708984375,0.495910644531,-0.221252441406
1534603000.640.96875,-0.28662109375,0.1376953125,1.44958496094,0.503540039062,-0.328063964844
1534603000.640.971435546875,-0.288330078125,0.1376953125,1.39617919922,0.442504882812,-0.396728515625
1534603000.650.97265625,-0.287841796875,0.139404296875,1.53350830078,0.747680664062,-0.373840332031
1534603000.650.971923828125,-0.2890625,0.141357421875,1.51824951172,0.717163085938,-0.221252441406
1534603000.650.97119140625,-0.287353515625,0.142822265625,1.38092041016,0.572204589844,0.0762939453125
1534603000.650.969482421875,-0.286865234375,0.14111328125,1.37329101562,0.343322753906,-0.0152587890625
1534603000.650.97314453125,-0.28759765625,0.1357421875,1.50299072266,0.450134277344,-0.167846679688
1534603000.650.97314453125,-0.288818359375,0.13671875,1.48773193359,0.289916992188,-0.297546386719
1534603000.650.972900390625,-0.287841796875,0.1376953125,1.67846679688,0.30517578125,-0.503540039062
1534603000.650.972412109375,-0.289794921875,0.13720703125,1.64794921875,0.0762939453125,-0.3662109375
1534603000.650.970703125,-0.289306640625,0.1396484375,1.54876708984,0.175476074219,-0.205993652344
1534603000.660.97607421875,-0.289794921875,0.13818359375,1.41143798828,0.381469726562,-0.205993652344
1534603000.660.976318359375,-0.2919921875,0.1357421875,1.33514404297,0.350952148438,-0.1220703125
1534603000.660.972900390625,-0.289794921875,0.136962890625,1.51824951172,0.358581542969,-0.06103515625
1534603000.660.972900390625,-0.289794921875,0.136962890625,1.66320800781,0.137329101562,0.0228881835938
1534603000.660.972900390625,-0.289794921875,0.142578125,1.64031982422,0.0457763671875,-0.137329101562
1534603000.660.97021484375,-0.2900390625,0.139404296875,1.35040283203,0.137329101562,-0.259399414062
1534603000.660.969970703125,-0.2880859375,0.138671875,1.31225585938,0.244140625,-0.236511230469
1534603000.660.972900390625,-0.288818359375,0.140869140625,1.50299072266,0.358581542969,-0.213623046875
1534603000.660.973388671875,-0.292724609375,0.137451171875,1.67846679688,0.373840332031,-0.221252441406
1534603000.660.970703125,-0.292724609375,0.1357421875,1.52587890625,0.465393066406,-0.190734863281
1534603000.670.96826171875,-0.28955078125,0.13427734375,1.28173828125,0.404357910156,-0.129699707031
1534603000.670.967041015625,-0.2890625,0.132080078125,1.40380859375,0.267028808594,-0.0381469726562
1534603000.670.97021484375,-0.288330078125,0.138916015625,1.47247314453,0.289916992188,-0.137329101562
1534603000.670.973388671875,-0.28759765625,0.14111328125,1.47247314453,0.3662109375,-0.198364257812
1534603000.670.967041015625,-0.286865234375,0.135009765625,1.60980224609,0.587463378906,-0.1220703125
1534603000.670.970703125,-0.290771484375,0.137451171875,1.41906738281,0.404357910156,-0.289916992188
1534603000.670.970947265625,-0.28955078125,0.1396484375,1.48773193359,0.396728515625,-0.282287597656
1534603000.670.974609375,-0.2841796875,0.137939453125,1.60980224609,0.48828125,-0.267028808594
1534603000.680.97900390625,-0.286376953125,0.135986328125,1.42669677734,0.556945800781,-0.312805175781
1534603000.680.97607421875,-0.2890625,0.138427734375,1.51062011719,0.526428222656,-0.205993652344
1534603000.680.96923828125,-0.286865234375,0.138427734375,1.61743164062,0.495910644531,-0.297546386719
1534603000.680.96826171875,-0.288818359375,0.14013671875,1.45721435547,0.617980957031,-0.411987304688
1534603000.690.9736328125,-0.290283203125,0.134765625,1.62506103516,0.67138671875,-0.640869140625
1534603000.690.976318359375,-0.291748046875,0.138671875,1.50299072266,0.480651855469,-0.686645507812
1534603000.690.97412109375,-0.287841796875,0.136962890625,1.56402587891,0.679016113281,-0.755310058594
1534603000.70.9736328125,-0.288330078125,0.137939453125,1.61743164062,0.831604003906,-0.602722167969
1534603000.70.97265625,-0.288330078125,0.138671875,1.54876708984,0.595092773438,-0.877380371094
1534603000.70.976806640625,-0.2841796875,0.13916015625,1.25885009766,0.938415527344,-0.625610351562
1534603000.70.97607421875,-0.285888671875,0.137451171875,1.52587890625,0.907897949219,-0.480651855469
1534603000.70.9736328125,-0.288818359375,0.138671875,1.48773193359,0.808715820312,-0.648498535156
1534603000.70.97119140625,-0.288818359375,0.14111328125,1.28173828125,0.831604003906,-0.717163085938
1534603000.70.970703125,-0.284912109375,0.138671875,1.53350830078,0.869750976562,-0.839233398438
1534603000.70.975341796875,-0.281982421875,0.141357421875,1.81579589844,0.617980957031,-0.984191894531
1534603000.710.97412109375,-0.2841796875,0.13623046875,1.70135498047,0.411987304688,-0.885009765625
1534603000.710.9716796875,-0.287109375,0.1328125,1.41143798828,0.518798828125,-0.701904296875
1534603000.710.97509765625,-0.287841796875,0.13818359375,1.65557861328,0.9765625,-0.511169433594
1534603000.710.974853515625,-0.285888671875,0.1416015625,1.68609619141,0.961303710938,-0.541687011719
1534603000.720.97119140625,-0.2841796875,0.140625,1.59454345703,0.79345703125,-0.526428222656
1534603000.720.973876953125,-0.285400390625,0.137451171875,1.56402587891,0.892639160156,-0.556945800781
1534603000.720.973876953125,-0.28271484375,0.139404296875,1.35040283203,0.747680664062,-0.358581542969
1534603000.720.973388671875,-0.2822265625,0.140380859375,1.56402587891,0.686645507812,-0.251770019531
1534603000.720.97265625,-0.2841796875,0.137939453125,1.63269042969,0.732421875,-0.3662109375
1534603000.720.974365234375,-0.2861328125,0.13525390625,1.35040283203,0.686645507812,-0.587463378906
1534603000.720.972412109375,-0.285400390625,0.14013671875,1.35040283203,0.679016113281,-0.3662109375
1534603000.720.973388671875,-0.285400390625,0.13623046875,1.51062011719,0.617980957031,-0.48828125
1534603000.730.975341796875,-0.28564453125,0.135498046875,1.46484375,0.572204589844,-0.6103515625
1534603000.730.9736328125,-0.2841796875,0.1435546875,1.60980224609,0.564575195312,-0.572204589844
1534603000.730.971435546875,-0.28662109375,0.1416015625,1.62506103516,0.473022460938,-0.396728515625
1534603000.730.97509765625,-0.28564453125,0.145263671875,1.51824951172,0.587463378906,-0.381469726562
1534603000.730.971923828125,-0.288818359375,0.142333984375,1.65557861328,0.465393066406,-0.473022460938
1534603000.730.972412109375,-0.287353515625,0.13916015625,1.64794921875,0.312805175781,-0.595092773438
1534603000.730.97412109375,-0.286865234375,0.138671875,1.48773193359,0.442504882812,-0.595092773438
1534603000.740.97021484375,-0.286376953125,0.14208984375,1.24359130859,0.419616699219,-0.190734863281
1534603000.740.96875,-0.28564453125,0.144775390625,1.30462646484,0.312805175781,-0.0762939453125
1534603000.740.9736328125,-0.28564453125,0.146240234375,1.44195556641,0.373840332031,-0.221252441406
1534603000.740.977294921875,-0.2861328125,0.146484375,1.36566162109,0.198364257812,-0.419616699219
1534603000.740.974609375,-0.2822265625,0.140625,1.60980224609,0.320434570312,-0.312805175781
1534603000.740.97021484375,-0.28369140625,0.141357421875,1.72424316406,0.259399414062,-0.442504882812
1534603000.740.9716796875,-0.2861328125,0.1455078125,1.69372558594,0.465393066406,-0.404357910156
1534603000.740.974609375,-0.2890625,0.141845703125,1.44958496094,0.411987304688,-0.228881835938
1534603000.740.974609375,-0.288818359375,0.143798828125,1.38854980469,0.373840332031,-0.0152587890625
1534603000.740.97314453125,-0.28564453125,0.14306640625,1.41143798828,0.450134277344,-0.0839233398438
1534603000.750.973876953125,-0.286865234375,0.14111328125,1.63269042969,0.381469726562,-0.244140625
1534603000.750.973876953125,-0.28759765625,0.1416015625,1.57928466797,0.320434570312,-0.335693359375
1534603000.750.972412109375,-0.2880859375,0.1396484375,1.51062011719,0.42724609375,-0.167846679688
1534603000.750.9736328125,-0.2900390625,0.1357421875,1.29699707031,0.617980957031,-0.236511230469
1534603000.750.977294921875,-0.2890625,0.13671875,1.51824951172,0.42724609375,-0.0457763671875
1534603000.750.980712890625,-0.287353515625,0.138916015625,1.72424316406,0.411987304688,-0.0457763671875
1534603000.750.97509765625,-0.287353515625,0.137939453125,1.5869140625,0.617980957031,-0.152587890625
1534603000.750.971923828125,-0.288330078125,0.13720703125,1.35040283203,0.617980957031,-0.236511230469
1534603000.750.974609375,-0.287353515625,0.138671875,1.09100341797,0.534057617188,-0.335693359375
1534603000.760.972412109375,-0.283935546875,0.14306640625,1.29699707031,0.518798828125,-0.0228881835938
1534603000.760.971435546875,-0.283203125,0.143310546875,1.53350830078,0.450134277344,0.06103515625
1534603000.760.973388671875,-0.28564453125,0.142578125,1.55639648438,0.511169433594,0.00762939453125
1534603000.760.97265625,-0.28759765625,0.142333984375,1.51824951172,0.465393066406,-0.0534057617188
1534603000.760.974609375,-0.29150390625,0.142822265625,1.45721435547,0.282287597656,-0.114440917969
1534603000.760.9765625,-0.292724609375,0.138427734375,1.54113769531,0.503540039062,-0.144958496094
1534603000.760.97509765625,-0.291015625,0.1376953125,1.54876708984,0.457763671875,-0.0686645507812
1534603000.760.973876953125,-0.2919921875,0.138671875,1.51824951172,0.411987304688,-0.00762939453125
1534603000.760.973876953125,-0.292724609375,0.136474609375,1.46484375,0.251770019531,-0.0686645507812
1534603000.760.975830078125,-0.291015625,0.1376953125,1.48010253906,0.251770019531,-0.30517578125
1534603000.770.972900390625,-0.29052734375,0.138427734375,1.44195556641,0.228881835938,-0.0762939453125
1534603000.770.969482421875,-0.28857421875,0.1416015625,1.39617919922,0.312805175781,0.0686645507812
1534603000.770.970947265625,-0.286376953125,0.14111328125,1.51824951172,0.48828125,-0.1220703125
1534603000.770.970947265625,-0.2861328125,0.137939453125,1.56402587891,0.480651855469,-0.251770019531
1534603000.770.972412109375,-0.286865234375,0.138427734375,1.54113769531,0.419616699219,-0.228881835938
1534603000.770.972412109375,-0.286865234375,0.138427734375,1.59454345703,0.30517578125,-0.030517578125
1534603000.770.9716796875,-0.288818359375,0.1376953125,1.64031982422,0.259399414062,0.160217285156
1534603000.770.971923828125,-0.2890625,0.13427734375,1.62506103516,0.335693359375,0.0762939453125
1534603000.770.971923828125,-0.2890625,0.13427734375,1.36566162109,0.396728515625,-0.0152587890625
1534603000.770.97265625,-0.288330078125,0.13330078125,1.49536132812,0.434875488281,-0.282287597656
1534603000.780.97021484375,-0.28857421875,0.1318359375,1.54113769531,0.350952148438,-0.602722167969
1534603000.780.9716796875,-0.29052734375,0.131103515625,1.63269042969,0.358581542969,-0.6103515625
1534603000.780.97607421875,-0.2919921875,0.135498046875,1.41906738281,0.267028808594,-0.358581542969
1534603000.780.97607421875,-0.29248046875,0.134521484375,1.41906738281,0.30517578125,-0.389099121094
1534603000.780.973388671875,-0.291259765625,0.130615234375,1.38854980469,0.30517578125,-0.30517578125
1534603000.780.973388671875,-0.288330078125,0.131591796875,1.64794921875,0.3662109375,-0.198364257812
1534603000.780.97216796875,-0.285888671875,0.133544921875,1.708984375,0.534057617188,-0.18310546875
1534603000.780.976806640625,-0.286865234375,0.135986328125,1.72424316406,0.54931640625,-0.328063964844
1534603000.780.975341796875,-0.290283203125,0.1357421875,1.51824951172,0.328063964844,-0.457763671875
1534603000.780.973388671875,-0.291015625,0.13525390625,1.53350830078,0.297546386719,-0.389099121094
1534603000.790.973388671875,-0.2890625,0.132568359375,1.35040283203,0.450134277344,-0.328063964844
1534603000.790.973388671875,-0.2890625,0.132568359375,1.26647949219,0.686645507812,-0.358581542969
1534603000.790.971923828125,-0.287353515625,0.138916015625,1.45721435547,0.679016113281,-0.389099121094
1534603000.790.975830078125,-0.287109375,0.14208984375,1.63269042969,0.663757324219,-0.343322753906
1534603000.790.974365234375,-0.284423828125,0.137451171875,1.62506103516,0.480651855469,-0.236511230469
1534603000.790.9716796875,-0.282958984375,0.140380859375,1.45721435547,0.328063964844,-0.289916992188
1534603000.790.9736328125,-0.285888671875,0.139404296875,1.44195556641,0.3662109375,-0.434875488281
1534603000.790.97216796875,-0.2861328125,0.1337890625,1.31988525391,0.54931640625,-0.602722167969
1534603000.790.973388671875,-0.285888671875,0.13330078125,1.59454345703,0.839233398438,-0.541687011719
1534603000.790.972900390625,-0.287109375,0.13720703125,1.85394287109,0.862121582031,-0.579833984375
1534603000.80.96923828125,-0.2861328125,0.137939453125,1.98364257812,0.755310058594,-0.625610351562
1534603000.80.97119140625,-0.28564453125,0.136962890625,1.54113769531,0.694274902344,-0.602722167969
1534603000.80.97119140625,-0.288330078125,0.139892578125,1.54113769531,0.991821289062,-0.473022460938
1534603000.80.97314453125,-0.2900390625,0.14013671875,1.74713134766,0.923156738281,-0.480651855469
1534603000.80.9736328125,-0.291015625,0.136474609375,1.80053710938,0.8544921875,-0.526428222656
1534603000.80.97021484375,-0.291748046875,0.13720703125,1.69372558594,0.946044921875,-0.389099121094
1534603000.80.970703125,-0.292236328125,0.13671875,1.61743164062,0.808715820312,-0.534057617188
1534603000.80.97314453125,-0.2900390625,0.1328125,1.65557861328,0.846862792969,-0.679016113281
1534603000.80.971923828125,-0.28515625,0.13916015625,1.59454345703,0.648498535156,-0.724792480469
1534603000.80.96875,-0.284912109375,0.142333984375,1.59454345703,0.732421875,-0.526428222656
1534603000.80.973388671875,-0.287841796875,0.139892578125,1.62506103516,0.762939453125,-0.495910644531
1534603000.810.97412109375,-0.289794921875,0.139404296875,1.55639648438,0.938415527344,-0.587463378906
1534603000.810.97216796875,-0.287109375,0.136474609375,1.44195556641,1.07574462891,-0.663757324219
1534603000.810.974365234375,-0.289794921875,0.1396484375,1.37329101562,0.961303710938,-0.701904296875
1534603000.810.974365234375,-0.293212890625,0.142822265625,1.41906738281,0.831604003906,-0.717163085938
1534603000.810.974365234375,-0.29052734375,0.138427734375,1.48010253906,0.724792480469,-0.778198242188
1534603000.810.974853515625,-0.28955078125,0.1376953125,1.59454345703,0.663757324219,-0.79345703125
1534603000.810.97607421875,-0.290283203125,0.140380859375,1.74713134766,0.885009765625,-0.846862792969
1534603000.810.9765625,-0.29052734375,0.14013671875,1.708984375,0.816345214844,-0.846862792969
1534603000.810.970703125,-0.290771484375,0.13818359375,1.53350830078,0.755310058594,-0.785827636719
1534603000.810.96923828125,-0.288330078125,0.135986328125,1.53350830078,0.724792480469,-0.762939453125
1534603000.820.972412109375,-0.28515625,0.136474609375,1.54113769531,0.91552734375,-0.534057617188
1534603000.820.970458984375,-0.2880859375,0.1435546875,1.65557861328,0.91552734375,-0.587463378906
1534603000.820.96826171875,-0.29052734375,0.14306640625,1.48010253906,0.885009765625,-0.785827636719
1534603000.820.968505859375,-0.289794921875,0.140380859375,1.31225585938,0.709533691406,-0.595092773438
1534603000.820.970947265625,-0.288330078125,0.143798828125,1.45721435547,0.625610351562,-0.48828125
1534603000.820.970947265625,-0.287353515625,0.14013671875,1.57165527344,0.846862792969,-0.526428222656
1534603000.820.97119140625,-0.286376953125,0.138671875,1.57928466797,0.762939453125,-0.556945800781
1534603000.820.9716796875,-0.285400390625,0.140869140625,1.54876708984,0.747680664062,-0.6103515625
1534603000.820.970947265625,-0.2861328125,0.1396484375,1.51824951172,0.564575195312,-0.564575195312
1534603000.830.973876953125,-0.284912109375,0.136474609375,1.41906738281,0.457763671875,-0.480651855469
1534603000.840.970947265625,-0.284912109375,0.139892578125,1.33514404297,0.450134277344,-0.411987304688
1534603000.840.973388671875,-0.28466796875,0.140380859375,1.54113769531,0.54931640625,-0.556945800781
1534603000.840.972900390625,-0.286865234375,0.138916015625,1.56402587891,0.556945800781,-0.389099121094
1534603000.840.96923828125,-0.285888671875,0.138671875,1.5869140625,0.595092773438,-0.350952148438
1534603000.840.971923828125,-0.28369140625,0.140625,1.63269042969,0.381469726562,-0.404357910156
1534603000.840.974609375,-0.285400390625,0.14208984375,1.44195556641,0.18310546875,-0.312805175781
1534603000.840.9755859375,-0.2890625,0.140869140625,1.47247314453,0.473022460938,-0.396728515625
1534603000.850.9755859375,-0.287353515625,0.13818359375,1.62506103516,0.18310546875,-0.213623046875
1534603000.850.974609375,-0.28466796875,0.140869140625,1.60217285156,0.434875488281,-0.503540039062
1534603000.850.970947265625,-0.28466796875,0.140625,1.49536132812,0.350952148438,-0.473022460938
1534603000.850.97607421875,-0.28662109375,0.136962890625,1.64794921875,0.350952148438,-0.419616699219
1534603000.850.979248046875,-0.28564453125,0.13720703125,1.57165527344,0.503540039062,-0.221252441406
1534603000.850.97607421875,-0.285400390625,0.134521484375,1.49536132812,0.358581542969,-0.175476074219
1534603000.860.971923828125,-0.2841796875,0.138916015625,1.56402587891,0.724792480469,-0.335693359375
1534603000.860.970947265625,-0.284912109375,0.13623046875,1.56402587891,0.411987304688,-0.198364257812
1534603000.860.973388671875,-0.28369140625,0.13623046875,1.60217285156,0.457763671875,-0.30517578125
1534603000.860.973876953125,-0.284423828125,0.135009765625,1.56402587891,0.617980957031,-0.320434570312
1534603000.870.96923828125,-0.28564453125,0.132568359375,1.54113769531,0.473022460938,-0.381469726562
1534603000.870.9716796875,-0.28759765625,0.1328125,1.64794921875,0.518798828125,-0.54931640625
1534603000.870.974853515625,-0.286376953125,0.13671875,1.85394287109,0.503540039062,-0.358581542969
1534603000.870.976806640625,-0.287841796875,0.137939453125,1.64031982422,0.473022460938,-0.236511230469
1534603000.870.973876953125,-0.288330078125,0.136474609375,1.57165527344,0.228881835938,-0.0686645507812
1534603000.870.97119140625,-0.287353515625,0.1416015625,1.45721435547,0.48828125,-0.18310546875
1534603000.870.97314453125,-0.29345703125,0.135986328125,1.42669677734,0.869750976562,-0.42724609375
1534603000.880.97314453125,-0.291015625,0.13916015625,1.67846679688,0.396728515625,-0.30517578125
1534603000.880.9716796875,-0.286376953125,0.138427734375,1.76239013672,0.625610351562,-0.587463378906
1534603000.880.973876953125,-0.286865234375,0.136474609375,1.53350830078,0.587463378906,-0.3662109375
1534603000.880.973388671875,-0.287109375,0.13623046875,1.45721435547,0.42724609375,-0.442504882812
1534603000.880.9677734375,-0.28662109375,0.134765625,1.40380859375,0.251770019531,-0.6103515625
1534603000.880.966796875,-0.287841796875,0.142333984375,1.38854980469,0.389099121094,-0.534057617188
1534603000.880.9716796875,-0.291015625,0.14208984375,1.59454345703,0.450134277344,-0.297546386719
1534603000.880.974609375,-0.286865234375,0.1396484375,1.74713134766,0.541687011719,-0.1220703125
1534603000.880.9736328125,-0.28515625,0.138916015625,1.73950195312,0.267028808594,-0.221252441406
1534603000.880.9716796875,-0.29052734375,0.13671875,1.73187255859,0.396728515625,-0.480651855469
1534603000.890.969970703125,-0.28955078125,0.134765625,1.64031982422,0.3662109375,-0.602722167969
1534603000.890.9697265625,-0.286865234375,0.13330078125,1.60980224609,0.381469726562,-0.335693359375
1534603000.890.975830078125,-0.287353515625,0.13232421875,1.57928466797,0.328063964844,-0.30517578125
1534603000.890.974365234375,-0.287353515625,0.134765625,1.51062011719,0.419616699219,-0.320434570312
1534603000.890.971923828125,-0.286376953125,0.136474609375,1.57165527344,0.442504882812,-0.396728515625
1534603000.890.971923828125,-0.28955078125,0.138916015625,1.60980224609,0.3662109375,-0.228881835938
1534603000.890.971923828125,-0.290771484375,0.140869140625,1.65557861328,0.396728515625,-0.18310546875
1534603000.890.970947265625,-0.287841796875,0.139404296875,1.68609619141,0.587463378906,-0.289916992188
1534603000.890.9677734375,-0.287353515625,0.14306640625,1.60217285156,0.717163085938,-0.312805175781
1534603000.90.96826171875,-0.291259765625,0.146484375,1.53350830078,0.747680664062,-0.389099121094
1534603000.90.97021484375,-0.290771484375,0.140869140625,1.80053710938,0.579833984375,-0.244140625
1534603000.90.970703125,-0.2880859375,0.134521484375,1.70135498047,0.564575195312,-0.3662109375
1534603000.90.970458984375,-0.2890625,0.138427734375,1.35040283203,0.717163085938,-0.381469726562
1534603000.90.972900390625,-0.290283203125,0.139404296875,1.48773193359,0.694274902344,-0.526428222656
1534603000.90.973876953125,-0.2880859375,0.1357421875,1.54113769531,0.411987304688,-0.442504882812
1534603000.90.973876953125,-0.28955078125,0.1376953125,1.51062011719,0.419616699219,-0.114440917969
1534603000.90.9765625,-0.291259765625,0.143310546875,1.54876708984,0.640869140625,-0.244140625
1534603000.90.9755859375,-0.289306640625,0.1455078125,1.40380859375,0.808715820312,-0.541687011719
1534603000.90.972900390625,-0.289306640625,0.140380859375,1.31225585938,0.732421875,-0.648498535156
1534603000.90.971923828125,-0.289306640625,0.137451171875,1.41906738281,0.465393066406,-0.465393066406
1534603000.910.97265625,-0.289794921875,0.13427734375,1.41906738281,0.6103515625,-0.259399414062
1534603000.910.9755859375,-0.29150390625,0.133056640625,1.71661376953,0.625610351562,-0.175476074219
1534603000.910.97509765625,-0.290771484375,0.138916015625,1.77764892578,0.465393066406,-0.343322753906
1534603000.910.97265625,-0.288818359375,0.14208984375,1.52587890625,0.419616699219,-0.457763671875
1534603000.910.97314453125,-0.285400390625,0.1416015625,1.3427734375,0.67138671875,-0.358581542969
1534603000.910.97314453125,-0.285400390625,0.1416015625,1.38092041016,0.694274902344,-0.350952148438
1534603000.910.974853515625,-0.284912109375,0.13720703125,1.39617919922,0.495910644531,-0.473022460938
1534603000.910.9736328125,-0.284912109375,0.1328125,1.57165527344,0.404357910156,-0.434875488281
1534603000.910.973388671875,-0.285400390625,0.133544921875,1.57165527344,0.267028808594,-0.404357910156
1534603000.910.972412109375,-0.290771484375,0.137939453125,1.63269042969,0.572204589844,-0.526428222656
1534603000.920.970947265625,-0.291748046875,0.14208984375,1.45721435547,0.679016113281,-0.617980957031
1534603000.920.9716796875,-0.289306640625,0.1455078125,1.35803222656,0.938415527344,-0.617980957031
1534603000.920.97216796875,-0.28857421875,0.142822265625,1.44958496094,0.946044921875,-0.541687011719
1534603000.920.9716796875,-0.290283203125,0.140869140625,1.53350830078,0.762939453125,-0.640869140625
1534603000.920.97021484375,-0.288330078125,0.139892578125,1.61743164062,0.785827636719,-0.740051269531
1534603000.920.97265625,-0.2861328125,0.138427734375,1.5869140625,0.785827636719,-0.595092773438
1534603000.920.974609375,-0.2890625,0.140869140625,1.65557861328,0.633239746094,-0.511169433594
1534603000.920.974853515625,-0.290283203125,0.142578125,1.52587890625,0.648498535156,-0.404357910156
1534603000.920.97265625,-0.292236328125,0.141845703125,1.33514404297,0.625610351562,-0.503540039062
1534603000.920.972900390625,-0.2890625,0.1376953125,1.47247314453,0.518798828125,-0.602722167969
1534603000.930.974609375,-0.2861328125,0.13623046875,1.68609619141,0.625610351562,-0.572204589844
1534603000.930.9697265625,-0.2890625,0.13232421875,1.68609619141,0.679016113281,-0.503540039062
1534603000.930.970458984375,-0.28955078125,0.131103515625,1.67083740234,0.518798828125,-0.404357910156
1534603000.930.97412109375,-0.28955078125,0.135498046875,1.48773193359,0.434875488281,-0.396728515625
1534603000.930.975830078125,-0.28759765625,0.139404296875,1.62506103516,0.511169433594,-0.518798828125
1534603000.930.9755859375,-0.28759765625,0.140625,1.708984375,0.701904296875,-0.648498535156
1534603000.930.97314453125,-0.289306640625,0.137939453125,1.70135498047,0.579833984375,-0.724792480469
1534603000.930.974609375,-0.28955078125,0.1357421875,1.54113769531,0.579833984375,-0.648498535156
1534603000.930.97216796875,-0.2900390625,0.13427734375,1.42669677734,0.587463378906,-0.511169433594
1534603000.930.9697265625,-0.290283203125,0.136962890625,1.43432617188,0.617980957031,-0.457763671875
1534603000.940.97216796875,-0.28759765625,0.140869140625,1.48010253906,0.877380371094,-0.48828125
1534603000.940.97216796875,-0.28759765625,0.140869140625,1.55639648438,0.968933105469,-0.396728515625
1534603000.940.97412109375,-0.28515625,0.139404296875,1.57928466797,0.770568847656,-0.518798828125
1534603000.940.974609375,-0.2880859375,0.141357421875,1.60217285156,0.595092773438,-0.48828125
