CSV format: Accelerometer x value, acclerometer y value, accelerometer z value, gyroscope x value, gyroscope y value, gyroscope z value
Sample frequency: 100Hz
1534515615.540.87353515625,-0.51806640625,0.02685546875,1.80816650391,0.869750976562,-0.267028808594
1534515615.550.873046875,-0.5185546875,0.02880859375,1.68609619141,0.694274902344,-0.442504882812
1534515615.550.869384765625,-0.516845703125,0.02392578125,1.67083740234,0.640869140625,-0.595092773438
1534515615.550.869384765625,-0.515625,0.02587890625,1.65557861328,0.640869140625,-0.541687011719
1534515615.550.8701171875,-0.51513671875,0.02734375,1.66320800781,0.740051269531,-0.473022460938
1534515615.550.8720703125,-0.51904296875,0.02099609375,1.77001953125,0.877380371094,-0.6103515625
1534515615.550.869140625,-0.51953125,0.029541015625,1.87683105469,0.999450683594,-0.579833984375
1534515615.560.873291015625,-0.5166015625,0.02734375,1.63269042969,1.00708007812,-0.984191894531
1534515615.560.8740234375,-0.51806640625,0.02783203125,1.80816650391,1.14440917969,-0.823974609375
1534515615.560.86669921875,-0.518310546875,0.028564453125,1.82342529297,1.28173828125,-1.09100341797
1534515615.560.8671875,-0.513671875,0.029052734375,1.75476074219,0.9765625,-1.29699707031
1534515615.570.871826171875,-0.5166015625,0.025390625,1.49536132812,0.91552734375,-1.26647949219
1534515615.570.872314453125,-0.51806640625,0.024658203125,1.78527832031,0.877380371094,-1.30462646484
1534515615.570.869384765625,-0.5224609375,0.02685546875,1.89208984375,0.869750976562,-0.808715820312
1534515615.570.87353515625,-0.518310546875,0.027099609375,1.65557861328,0.877380371094,-1.38854980469
1534515615.570.868408203125,-0.5185546875,0.0283203125,1.41143798828,0.869750976562,-1.40380859375
1534515615.570.866943359375,-0.514892578125,0.035400390625,1.29699707031,0.869750976562,-1.51062011719
1534515615.580.87353515625,-0.51513671875,0.03076171875,1.45721435547,0.732421875,-1.41906738281
1534515615.590.872802734375,-0.513427734375,0.021240234375,1.49536132812,0.534057617188,-1.06811523438
1534515615.590.873046875,-0.514892578125,0.025146484375,1.57928466797,0.656127929688,-0.991821289062
1534515615.590.873046875,-0.514404296875,0.02685546875,1.45721435547,0.534057617188,-1.05285644531
1534515615.590.873291015625,-0.5107421875,0.0234375,1.220703125,0.473022460938,-0.968933105469
1534515615.590.871337890625,-0.514892578125,0.021484375,1.43432617188,0.511169433594,-0.946044921875
1534515615.590.870849609375,-0.516845703125,0.033447265625,1.53350830078,0.419616699219,-0.663757324219
1534515615.590.87548828125,-0.515625,0.029296875,1.35040283203,0.518798828125,-0.564575195312
1534515615.590.872314453125,-0.5078125,0.022216796875,1.45721435547,0.640869140625,-0.518798828125
1534515615.60.873291015625,-0.51123046875,0.02001953125,1.67083740234,0.8544921875,-0.579833984375
1534515615.60.87353515625,-0.51611328125,0.022216796875,1.82342529297,0.625610351562,-0.450134277344
1534515615.60.873046875,-0.515869140625,0.029296875,1.61743164062,0.473022460938,-0.48828125
1534515615.610.873779296875,-0.516845703125,0.024169921875,1.91497802734,0.816345214844,-0.0762939453125
1534515615.610.87353515625,-0.514404296875,0.030517578125,1.41906738281,0.770568847656,-0.175476074219
1534515615.610.869873046875,-0.5146484375,0.02783203125,1.80816650391,0.778198242188,-0.0839233398438
1534515615.620.87255859375,-0.514892578125,0.02734375,1.86920166016,0.48828125,-0.18310546875
1534515615.620.874267578125,-0.51611328125,0.0302734375,1.56402587891,0.640869140625,-0.251770019531
1534515615.620.87060546875,-0.515869140625,0.025634765625,1.41143798828,0.892639160156,-0.259399414062
1534515615.620.871826171875,-0.51318359375,0.02880859375,1.708984375,0.717163085938,-0.152587890625
1534515615.630.871826171875,-0.515380859375,0.027587890625,1.64031982422,0.648498535156,-0.396728515625
1534515615.630.87548828125,-0.515869140625,0.037841796875,1.48773193359,0.602722167969,-0.503540039062
1534515615.630.8740234375,-0.5146484375,0.032470703125,1.28173828125,0.541687011719,-0.595092773438
1534515615.630.872314453125,-0.517333984375,0.03125,1.38092041016,0.564575195312,-0.755310058594
1534515615.640.87109375,-0.518310546875,0.034423828125,1.75476074219,0.503540039062,-0.785827636719
1534515615.640.868408203125,-0.51513671875,0.0302734375,1.66320800781,0.541687011719,-0.808715820312
1534515615.640.872314453125,-0.5166015625,0.028564453125,1.41906738281,0.656127929688,-0.862121582031
1534515615.650.871826171875,-0.51708984375,0.02783203125,1.46484375,0.450134277344,-0.823974609375
1534515615.650.87060546875,-0.514404296875,0.031494140625,1.54113769531,0.770568847656,-0.770568847656
1534515615.650.870361328125,-0.511962890625,0.029541015625,1.46484375,0.694274902344,-0.640869140625
1534515615.650.86962890625,-0.5107421875,0.02587890625,1.56402587891,0.328063964844,-0.831604003906
1534515615.650.870849609375,-0.513916015625,0.0302734375,1.71661376953,0.198364257812,-0.946044921875
1534515615.650.872802734375,-0.515380859375,0.033447265625,1.67846679688,0.297546386719,-0.823974609375
1534515615.650.8701171875,-0.513916015625,0.03076171875,1.45721435547,0.587463378906,-0.579833984375
1534515615.650.869873046875,-0.51513671875,0.027587890625,1.42669677734,0.480651855469,-0.686645507812
1534515615.660.87158203125,-0.516357421875,0.0244140625,1.50299072266,0.442504882812,-0.663757324219
1534515615.660.872314453125,-0.516845703125,0.0283203125,1.38854980469,0.389099121094,-0.556945800781
1534515615.660.871337890625,-0.5166015625,0.025390625,1.51824951172,0.495910644531,-0.740051269531
1534515615.670.8720703125,-0.516357421875,0.02490234375,1.60217285156,0.663757324219,-0.747680664062
1534515615.670.872314453125,-0.51123046875,0.028076171875,1.50299072266,0.762939453125,-0.541687011719
1534515615.670.8720703125,-0.513671875,0.02392578125,1.64031982422,0.595092773438,-0.404357910156
1534515615.670.8740234375,-0.51416015625,0.027587890625,1.65557861328,0.679016113281,-0.633239746094
1534515615.670.87109375,-0.513671875,0.031005859375,1.46484375,0.648498535156,-0.3662109375
1534515615.680.865966796875,-0.515380859375,0.02880859375,1.60980224609,0.511169433594,-0.396728515625
1534515615.680.873291015625,-0.515625,0.0263671875,1.52587890625,0.511169433594,-0.152587890625
1534515615.680.873046875,-0.517333984375,0.027099609375,1.50299072266,0.534057617188,-0.114440917969
1534515615.680.874267578125,-0.519287109375,0.02783203125,1.55639648438,0.679016113281,-0.297546386719
1534515615.680.8701171875,-0.51953125,0.027587890625,1.67083740234,0.732421875,-0.404357910156
1534515615.690.8701171875,-0.51123046875,0.029052734375,1.54876708984,0.770568847656,-0.740051269531
1534515615.690.875,-0.52001953125,0.023681640625,1.57928466797,0.823974609375,-0.740051269531
1534515615.690.873291015625,-0.518798828125,0.02685546875,1.61743164062,0.67138671875,-0.770568847656
1534515615.690.873046875,-0.514892578125,0.03125,1.77001953125,0.648498535156,-0.709533691406
1534515615.690.872314453125,-0.514892578125,0.03564453125,1.60980224609,0.801086425781,-0.640869140625
1534515615.70.869140625,-0.515625,0.028076171875,1.76239013672,0.808715820312,-0.679016113281
1534515615.70.870361328125,-0.520263671875,0.0234375,1.51824951172,0.778198242188,-0.846862792969
1534515615.70.8720703125,-0.516357421875,0.024658203125,1.3427734375,0.732421875,-0.732421875
1534515615.710.873046875,-0.515380859375,0.031494140625,1.86920166016,0.923156738281,-0.9765625
1534515615.710.869873046875,-0.512939453125,0.023681640625,1.80816650391,1.06048583984,-1.01470947266
1534515615.710.869140625,-0.512939453125,0.026611328125,1.73950195312,1.10626220703,-1.17492675781
1534515615.710.87060546875,-0.51513671875,0.031982421875,1.68609619141,0.953674316406,-1.15966796875
1534515615.710.87353515625,-0.51513671875,0.025634765625,1.41143798828,1.02996826172,-1.14440917969
1534515615.710.875,-0.516357421875,0.029296875,1.38854980469,0.892639160156,-1.27410888672
1534515615.710.873779296875,-0.515869140625,0.029052734375,1.72424316406,0.923156738281,-1.01470947266
1534515615.720.87255859375,-0.514892578125,0.03173828125,1.71661376953,0.892639160156,-1.06811523438
1534515615.720.87109375,-0.51513671875,0.028564453125,1.53350830078,0.862121582031,-1.29699707031
1534515615.720.8740234375,-0.517333984375,0.033203125,1.73950195312,0.564575195312,-1.10626220703
1534515615.720.876220703125,-0.512939453125,0.02783203125,1.80053710938,0.869750976562,-1.31988525391
1534515615.730.873779296875,-0.51708984375,0.026611328125,1.57928466797,1.12915039062,-1.54876708984
1534515615.730.8720703125,-0.51806640625,0.03173828125,1.77764892578,1.07574462891,-1.41906738281
1534515615.730.874267578125,-0.514404296875,0.0302734375,1.71661376953,0.961303710938,-1.37329101562
1534515615.730.872314453125,-0.513671875,0.031005859375,1.708984375,1.06811523438,-1.03759765625
1534515615.730.87060546875,-0.512939453125,0.02490234375,1.70135498047,0.572204589844,-1.18255615234
1534515615.740.875,-0.513427734375,0.0322265625,1.74713134766,0.762939453125,-1.02233886719
1534515615.740.874755859375,-0.51611328125,0.02685546875,1.32751464844,0.755310058594,-1.10626220703
1534515615.750.873291015625,-0.514892578125,0.0283203125,1.33514404297,0.823974609375,-1.14440917969
1534515615.750.874267578125,-0.516845703125,0.028076171875,1.60980224609,0.732421875,-0.48828125
1534515615.750.873291015625,-0.51513671875,0.02880859375,1.63269042969,0.892639160156,-0.724792480469
1534515615.750.87548828125,-0.513916015625,0.02734375,1.44195556641,0.724792480469,-0.724792480469
1534515615.750.87646484375,-0.516357421875,0.025634765625,1.38092041016,0.717163085938,-0.450134277344
1534515615.750.8740234375,-0.511474609375,0.030029296875,1.28936767578,0.541687011719,-0.289916992188
1534515615.760.87255859375,-0.512939453125,0.030517578125,1.60980224609,0.465393066406,-0.328063964844
1534515615.760.873779296875,-0.515869140625,0.033203125,1.5869140625,0.221252441406,-0.106811523438
1534515615.760.87353515625,-0.51806640625,0.031005859375,1.56402587891,0.213623046875,-0.0762939453125
1534515615.760.87158203125,-0.51904296875,0.032470703125,1.55639648438,0.450134277344,-0.144958496094
1534515615.770.869140625,-0.513671875,0.025634765625,1.44195556641,0.30517578125,0.297546386719
1534515615.770.873046875,-0.5146484375,0.028564453125,1.47247314453,0.3662109375,0.213623046875
1534515615.770.873779296875,-0.517333984375,0.025146484375,1.220703125,0.419616699219,0.213623046875
1534515615.770.87158203125,-0.516357421875,0.025390625,1.48773193359,0.244140625,0.0991821289062
1534515615.770.872802734375,-0.5146484375,0.0263671875,1.57928466797,0.274658203125,0.381469726562
1534515615.780.87109375,-0.515380859375,0.02880859375,1.33514404297,0.465393066406,0.267028808594
1534515615.780.873291015625,-0.515869140625,0.02587890625,1.60217285156,0.175476074219,-0.137329101562
1534515615.780.87060546875,-0.516845703125,0.03369140625,1.61743164062,0.663757324219,-0.350952148438
1534515615.780.87255859375,-0.515625,0.036376953125,1.37329101562,0.732421875,-0.160217285156
1534515615.790.874755859375,-0.516357421875,0.03515625,1.44195556641,0.48828125,-0.0991821289062
1534515615.790.87353515625,-0.517822265625,0.034423828125,1.62506103516,0.473022460938,0.0
1534515615.790.869140625,-0.520263671875,0.03076171875,1.67846679688,0.633239746094,0.0228881835938
1534515615.790.86865234375,-0.517822265625,0.02294921875,1.46484375,0.389099121094,-0.221252441406
1534515615.790.871337890625,-0.514892578125,0.033447265625,1.29699707031,0.205993652344,-0.0534057617188
1534515615.80.86767578125,-0.515380859375,0.033203125,1.39617919922,0.244140625,-0.450134277344
1534515615.80.8720703125,-0.517578125,0.0263671875,1.44195556641,0.450134277344,-0.381469726562
1534515615.80.87451171875,-0.51513671875,0.029052734375,1.3427734375,0.457763671875,-0.617980957031
1534515615.80.871337890625,-0.5126953125,0.027587890625,1.42669677734,0.511169433594,-0.67138671875
1534515615.80.87060546875,-0.515625,0.0244140625,1.44958496094,0.595092773438,-0.862121582031
1534515615.80.869140625,-0.5185546875,0.021728515625,1.39617919922,0.823974609375,-0.900268554688
1534515615.810.870361328125,-0.51611328125,0.01806640625,1.37329101562,0.938415527344,-0.938415527344
1534515615.810.87109375,-0.51953125,0.0283203125,1.47247314453,0.709533691406,-0.999450683594
1534515615.820.8701171875,-0.5166015625,0.034423828125,1.63269042969,0.762939453125,-1.01470947266
1534515615.820.871826171875,-0.517333984375,0.032470703125,1.44195556641,0.633239746094,-1.10626220703
1534515615.820.873291015625,-0.517578125,0.0302734375,1.26647949219,0.709533691406,-1.31225585938
1534515615.820.87158203125,-0.513916015625,0.029541015625,1.30462646484,0.831604003906,-1.17492675781
1534515615.820.873046875,-0.51220703125,0.029052734375,1.44958496094,0.839233398438,-0.946044921875
1534515615.820.871337890625,-0.517333984375,0.028076171875,1.49536132812,0.694274902344,-0.907897949219
1534515615.830.868896484375,-0.517578125,0.030517578125,1.28936767578,0.244140625,-0.419616699219
1534515615.830.873779296875,-0.513427734375,0.02734375,1.40380859375,0.0762939453125,-0.297546386719
1534515615.830.87255859375,-0.516845703125,0.03076171875,1.46484375,0.0991821289062,-0.404357910156
1534515615.830.87255859375,-0.518310546875,0.0283203125,1.42669677734,-0.0457763671875,-0.30517578125
1534515615.830.876220703125,-0.514404296875,0.02880859375,1.24359130859,-0.0152587890625,-0.0762939453125
1534515615.840.87841796875,-0.510498046875,0.031982421875,1.19018554688,0.129699707031,0.160217285156
1534515615.840.874755859375,-0.51220703125,0.03271484375,1.15966796875,-0.167846679688,0.3662109375
1534515615.840.874267578125,-0.51416015625,0.03125,1.05285644531,-0.213623046875,0.244140625
1534515615.840.875244140625,-0.510986328125,0.03076171875,0.907897949219,-0.556945800781,0.801086425781
1534515615.850.875732421875,-0.515380859375,0.02587890625,1.28173828125,-0.6103515625,0.877380371094
1534515615.850.872802734375,-0.51513671875,0.0302734375,1.19018554688,-0.480651855469,1.220703125
1534515615.850.875,-0.5166015625,0.027587890625,1.29699707031,-0.274658203125,1.52587890625
1534515615.860.871337890625,-0.515380859375,0.02490234375,1.53350830078,-0.595092773438,1.40380859375
1534515615.870.871337890625,-0.512451171875,0.02978515625,1.26647949219,0.129699707031,1.49536132812
1534515615.870.869873046875,-0.51611328125,0.031005859375,1.65557861328,0.129699707031,1.23596191406
1534515615.870.870361328125,-0.51806640625,0.032470703125,1.69372558594,0.198364257812,1.16729736328
1534515615.870.87255859375,-0.519287109375,0.03564453125,1.74713134766,0.282287597656,1.15966796875
1534515615.870.872314453125,-0.5205078125,0.032958984375,1.77764892578,0.556945800781,0.755310058594
1534515615.870.86669921875,-0.516357421875,0.029296875,1.64794921875,0.480651855469,0.6103515625
1534515615.870.865966796875,-0.51220703125,0.0263671875,1.80816650391,0.625610351562,0.625610351562
1534515615.870.868408203125,-0.5107421875,0.02587890625,1.98364257812,0.579833984375,0.442504882812
1534515615.880.871337890625,-0.51708984375,0.03271484375,2.03704833984,1.39617919922,-1.28936767578
1534515615.890.868896484375,-0.517578125,0.030517578125,1.88446044922,1.73187255859,-1.64794921875
1534515615.890.868896484375,-0.5166015625,0.02734375,1.8310546875,1.57928466797,-2.11334228516
1534515615.890.872314453125,-0.5185546875,0.02978515625,1.88446044922,1.61743164062,-2.08282470703
1534515615.890.869873046875,-0.520751953125,0.030029296875,1.953125,1.41143798828,-2.25067138672
1534515615.890.86865234375,-0.51953125,0.0283203125,2.05230712891,1.57928466797,-2.50244140625
1534515615.90.868896484375,-0.517822265625,0.0302734375,2.05993652344,1.71661376953,-2.84576416016
1534515615.90.87158203125,-0.513427734375,0.032958984375,1.51824951172,1.30462646484,-3.47137451172
1534515615.90.868408203125,-0.51513671875,0.031982421875,1.60217285156,1.63269042969,-3.47900390625
1534515615.910.87158203125,-0.514404296875,0.02978515625,1.65557861328,1.51824951172,-3.13568115234
1534515615.910.872314453125,-0.51513671875,0.030517578125,1.60980224609,1.40380859375,-3.16619873047
1534515615.910.87353515625,-0.516357421875,0.03125,1.67083740234,1.38092041016,-3.20434570312
1534515615.910.875,-0.5166015625,0.028564453125,1.51062011719,1.38854980469,-3.42559814453
1534515615.910.873046875,-0.51416015625,0.026123046875,1.70135498047,1.40380859375,-3.11279296875
1534515615.910.874755859375,-0.5146484375,0.023681640625,2.01416015625,1.19781494141,-2.74658203125
1534515615.920.874267578125,-0.516845703125,0.0234375,1.46484375,0.892639160156,-2.73895263672
1534515615.920.87646484375,-0.513916015625,0.033447265625,1.3427734375,0.869750976562,-1.84631347656
1534515615.920.876708984375,-0.513671875,0.028564453125,1.54113769531,0.91552734375,-1.68609619141
1534515615.920.87451171875,-0.51513671875,0.032470703125,1.56402587891,0.869750976562,-1.43432617188
1534515615.920.876220703125,-0.51611328125,0.034423828125,1.42669677734,0.9765625,-1.25122070312
1534515615.920.878662109375,-0.515625,0.033203125,1.78527832031,0.900268554688,-1.15203857422
1534515615.920.876953125,-0.514404296875,0.02880859375,2.0751953125,0.846862792969,-1.15966796875
1534515615.930.87451171875,-0.51318359375,0.029296875,1.84631347656,0.823974609375,-0.717163085938
1534515615.930.876220703125,-0.51416015625,0.03466796875,1.51062011719,0.312805175781,0.640869140625
1534515615.940.87353515625,-0.51123046875,0.0341796875,1.64031982422,0.267028808594,0.640869140625
1534515615.940.87158203125,-0.512451171875,0.03173828125,1.77764892578,0.18310546875,0.846862792969
1534515615.940.869384765625,-0.515625,0.028564453125,2.00653076172,0.244140625,1.19018554688
1534515615.940.87109375,-0.512451171875,0.029541015625,1.65557861328,0.404357910156,1.28936767578
1534515615.940.872802734375,-0.512939453125,0.033447265625,1.47247314453,0.3662109375,1.11389160156
1534515615.940.874755859375,-0.5146484375,0.03662109375,1.38092041016,0.0228881835938,1.02996826172
1534515615.950.87353515625,-0.513916015625,0.03515625,1.48773193359,-0.152587890625,1.12152099609
1534515615.950.87109375,-0.514892578125,0.031005859375,1.38092041016,-0.0686645507812,1.04522705078
1534515615.950.87255859375,-0.513427734375,0.031494140625,1.14440917969,-0.091552734375,1.08337402344
1534515615.950.87255859375,-0.514892578125,0.027099609375,0.984191894531,0.0152587890625,1.13677978516
1534515615.950.8701171875,-0.5146484375,0.0341796875,1.18255615234,-0.213623046875,1.11389160156
1534515615.950.871337890625,-0.51513671875,0.0400390625,1.28173828125,-0.48828125,1.25885009766
1534515615.960.870849609375,-0.513671875,0.02685546875,1.10626220703,-0.396728515625,0.991821289062
1534515615.970.874755859375,-0.51611328125,0.024658203125,1.22833251953,-0.358581542969,0.900268554688
1534515615.970.871826171875,-0.516357421875,0.0322265625,1.06811523438,-0.00762939453125,0.457763671875
1534515615.970.870361328125,-0.515380859375,0.0234375,1.22833251953,-0.30517578125,0.373840332031
1534515615.970.872802734375,-0.514892578125,0.021484375,1.26647949219,-0.152587890625,0.381469726562
1534515615.970.871337890625,-0.515625,0.029052734375,0.869750976562,0.0686645507812,0.328063964844
1534515615.970.867431640625,-0.5166015625,0.033203125,1.17492675781,0.0686645507812,0.129699707031
1534515615.970.868408203125,-0.517578125,0.0302734375,1.29699707031,-0.091552734375,0.267028808594
1534515615.970.87158203125,-0.514404296875,0.028564453125,1.50299072266,-0.175476074219,0.381469726562
1534515615.980.868408203125,-0.517333984375,0.02880859375,1.25885009766,-0.144958496094,0.091552734375
1534515615.980.871337890625,-0.51806640625,0.03271484375,1.36566162109,0.0,0.0
1534515615.990.87109375,-0.5146484375,0.02197265625,1.36566162109,-0.0228881835938,-0.0152587890625
1534515615.990.875244140625,-0.513671875,0.02294921875,1.33514404297,0.129699707031,-0.381469726562
1534515615.990.87548828125,-0.512451171875,0.031982421875,1.44958496094,0.00762939453125,-0.350952148438
1534515615.990.87255859375,-0.512451171875,0.032470703125,1.32751464844,-0.236511230469,-0.289916992188
1534515615.990.871337890625,-0.515380859375,0.022705078125,1.24359130859,-0.0991821289062,-0.0839233398438
1534515616.00.872802734375,-0.5185546875,0.0244140625,1.77764892578,0.54931640625,-0.328063964844
1534515616.00.875244140625,-0.515869140625,0.03125,1.35803222656,0.6103515625,-0.358581542969
1534515616.00.876220703125,-0.515869140625,0.029541015625,1.48010253906,0.518798828125,-0.106811523438
1534515616.00.871826171875,-0.515869140625,0.0283203125,1.85394287109,0.503540039062,-0.114440917969
1534515616.00.869384765625,-0.513671875,0.027099609375,1.80053710938,0.404357910156,-0.587463378906
1534515616.00.87158203125,-0.51513671875,0.0263671875,1.60980224609,0.518798828125,-0.343322753906
1534515616.010.871826171875,-0.518310546875,0.025634765625,1.55639648438,0.778198242188,-0.282287597656
1534515616.010.8720703125,-0.516845703125,0.029541015625,1.37329101562,0.91552734375,-0.633239746094
1534515616.020.873046875,-0.51708984375,0.0283203125,1.37329101562,0.556945800781,-0.740051269531
1534515616.020.87109375,-0.5146484375,0.02880859375,1.55639648438,0.289916992188,-0.648498535156
1534515616.020.87158203125,-0.51025390625,0.0234375,1.73187255859,0.885009765625,-0.648498535156
1534515616.020.869384765625,-0.51318359375,0.027587890625,1.54113769531,1.11389160156,-0.694274902344
1534515616.020.87158203125,-0.51513671875,0.032958984375,1.67846679688,0.625610351562,-1.14440917969
1534515616.030.870849609375,-0.512939453125,0.024658203125,1.49536132812,0.770568847656,-1.16729736328
1534515616.030.874755859375,-0.5166015625,0.02490234375,1.68609619141,0.419616699219,-1.16729736328
1534515616.040.876708984375,-0.519775390625,0.02587890625,1.74713134766,0.534057617188,-1.12152099609
1534515616.040.875732421875,-0.51904296875,0.0244140625,1.57165527344,0.473022460938,-0.79345703125
1534515616.040.87109375,-0.514404296875,0.0302734375,1.47247314453,0.694274902344,-0.938415527344
1534515616.040.869384765625,-0.51708984375,0.030029296875,1.51062011719,0.701904296875,-1.02996826172
1534515616.050.87060546875,-0.51806640625,0.02978515625,1.57165527344,0.42724609375,-0.892639160156
1534515616.050.87109375,-0.51513671875,0.029296875,1.48773193359,0.419616699219,-1.03759765625
1534515616.050.873291015625,-0.513916015625,0.025146484375,1.46484375,0.656127929688,-0.938415527344
1534515616.050.87255859375,-0.514404296875,0.025634765625,1.61743164062,0.686645507812,-0.694274902344
1534515616.050.875244140625,-0.51171875,0.035888671875,1.72424316406,0.869750976562,-0.6103515625
1534515616.050.873779296875,-0.513427734375,0.030517578125,1.66320800781,0.831604003906,-0.900268554688
1534515616.050.868896484375,-0.512939453125,0.025390625,1.48773193359,0.625610351562,-0.885009765625
1534515616.060.867919921875,-0.513427734375,0.026611328125,1.79290771484,0.541687011719,-0.617980957031
1534515616.060.873046875,-0.517578125,0.02978515625,1.48773193359,0.595092773438,0.0534057617188
1534515616.060.8701171875,-0.5146484375,0.028564453125,1.52587890625,0.679016113281,-0.297546386719
1534515616.060.86962890625,-0.517822265625,0.0322265625,1.53350830078,0.457763671875,-0.312805175781
1534515616.070.86962890625,-0.517822265625,0.031005859375,1.57165527344,0.450134277344,0.0534057617188
1534515616.070.86669921875,-0.51708984375,0.025390625,1.44195556641,0.274658203125,0.137329101562
1534515616.070.87060546875,-0.51513671875,0.026611328125,1.32751464844,0.236511230469,-0.0457763671875
1534515616.070.875244140625,-0.517578125,0.02978515625,1.35803222656,0.274658203125,-0.175476074219
1534515616.070.871826171875,-0.51953125,0.0322265625,1.25122070312,0.297546386719,-0.236511230469
1534515616.080.8720703125,-0.519775390625,0.027587890625,1.29699707031,0.289916992188,0.0762939453125
1534515616.080.86865234375,-0.5166015625,0.031982421875,1.60217285156,0.457763671875,0.0534057617188
1534515616.080.872314453125,-0.519287109375,0.03369140625,1.17492675781,0.244140625,0.144958496094
1534515616.080.875244140625,-0.520751953125,0.031494140625,1.49536132812,-0.00762939453125,0.0686645507812
1534515616.080.87109375,-0.516357421875,0.0283203125,1.57928466797,-0.0152587890625,-0.221252441406
1534515616.080.8720703125,-0.51611328125,0.029541015625,1.60980224609,0.137329101562,-0.267028808594
1534515616.090.873046875,-0.513427734375,0.032470703125,1.48773193359,0.48828125,0.06103515625
1534515616.090.875244140625,-0.513916015625,0.032958984375,1.44958496094,0.312805175781,0.312805175781
1534515616.090.872314453125,-0.513916015625,0.0322265625,1.60217285156,0.457763671875,-0.236511230469
1534515616.090.87158203125,-0.51904296875,0.033447265625,1.49536132812,0.251770019531,-0.137329101562
1534515616.10.869384765625,-0.51123046875,0.034423828125,1.22833251953,0.236511230469,-0.251770019531
1534515616.110.875732421875,-0.51611328125,0.031494140625,1.15203857422,0.495910644531,-0.228881835938
1534515616.110.871337890625,-0.515869140625,0.0263671875,1.25122070312,0.198364257812,-0.381469726562
1534515616.110.872314453125,-0.514404296875,0.026123046875,1.41906738281,0.495910644531,-0.350952148438
1534515616.110.869873046875,-0.51708984375,0.029541015625,1.50299072266,0.6103515625,-0.434875488281
1534515616.110.872314453125,-0.518310546875,0.02490234375,1.44195556641,0.320434570312,-0.518798828125
1534515616.110.873291015625,-0.517822265625,0.02392578125,1.41143798828,0.419616699219,-0.694274902344
1534515616.110.873779296875,-0.517578125,0.026611328125,1.38854980469,0.740051269531,-0.6103515625
1534515616.120.873779296875,-0.51416015625,0.026611328125,1.5869140625,0.251770019531,-0.328063964844
1534515616.120.876953125,-0.5166015625,0.02978515625,1.36566162109,0.328063964844,-0.396728515625
1534515616.120.8759765625,-0.520263671875,0.0283203125,1.47247314453,0.534057617188,-0.701904296875
1534515616.130.8759765625,-0.51806640625,0.02392578125,1.52587890625,0.0534057617188,-0.503540039062
1534515616.130.869873046875,-0.51416015625,0.023681640625,1.66320800781,0.190734863281,-0.381469726562
1534515616.130.869384765625,-0.51806640625,0.03369140625,1.73187255859,0.450134277344,-0.282287597656
1534515616.130.87353515625,-0.51904296875,0.03076171875,1.49536132812,0.289916992188,-0.267028808594
1534515616.140.87744140625,-0.518798828125,0.0302734375,1.51062011719,0.198364257812,-0.350952148438
1534515616.140.87109375,-0.5166015625,0.02880859375,1.61743164062,0.106811523438,-0.0152587890625
1534515616.140.871337890625,-0.515380859375,0.02734375,1.44195556641,0.18310546875,0.328063964844
1534515616.140.87158203125,-0.5107421875,0.02978515625,1.23596191406,0.30517578125,0.0991821289062
1534515616.140.870361328125,-0.51220703125,0.032958984375,1.43432617188,0.328063964844,0.06103515625
1534515616.140.872802734375,-0.514892578125,0.031005859375,1.66320800781,0.335693359375,0.175476074219
1534515616.140.873291015625,-0.51220703125,0.03369140625,1.55639648438,0.190734863281,0.282287597656
1534515616.150.872802734375,-0.51318359375,0.026611328125,1.45721435547,0.0534057617188,0.167846679688
1534515616.160.869140625,-0.515869140625,0.02880859375,1.28936767578,0.205993652344,0.190734863281
1534515616.160.8701171875,-0.515625,0.0283203125,1.47247314453,-0.0228881835938,0.328063964844
1534515616.160.873779296875,-0.5166015625,0.02685546875,1.57165527344,-0.526428222656,0.6103515625
1534515616.160.875,-0.515625,0.025634765625,1.53350830078,-0.30517578125,0.42724609375
1534515616.160.87255859375,-0.515625,0.02685546875,1.48773193359,0.06103515625,0.389099121094
1534515616.160.8681640625,-0.513671875,0.026123046875,1.37329101562,0.0839233398438,0.297546386719
1534515616.170.87158203125,-0.513671875,0.0263671875,1.54113769531,0.129699707031,0.419616699219
1534515616.170.87109375,-0.517578125,0.02685546875,1.46484375,-0.0991821289062,0.259399414062
1534515616.170.87060546875,-0.517333984375,0.02685546875,1.35040283203,0.0381469726562,0.297546386719
1534515616.170.875,-0.51904296875,0.031005859375,1.12152099609,0.328063964844,0.328063964844
1534515616.170.870849609375,-0.519775390625,0.03271484375,1.25122070312,0.335693359375,0.404357910156
1534515616.180.873291015625,-0.519775390625,0.03271484375,1.30462646484,0.0152587890625,0.328063964844
1534515616.180.872314453125,-0.5166015625,0.031494140625,1.08337402344,0.152587890625,0.442504882812
1534515616.180.870849609375,-0.51904296875,0.0302734375,1.40380859375,0.152587890625,0.0991821289062
1534515616.180.87353515625,-0.51171875,0.0283203125,1.01470947266,0.114440917969,0.0839233398438
1534515616.180.871337890625,-0.517578125,0.026123046875,1.0986328125,0.106811523438,-0.18310546875
1534515616.190.869384765625,-0.51708984375,0.017333984375,1.37329101562,0.091552734375,-0.18310546875
1534515616.190.868408203125,-0.51611328125,0.0263671875,1.18255615234,-0.0534057617188,-0.205993652344
1534515616.20.87548828125,-0.5205078125,0.02880859375,1.18255615234,0.190734863281,-0.0991821289062
1534515616.20.871337890625,-0.519287109375,0.029296875,1.29699707031,0.144958496094,-0.198364257812
1534515616.20.87060546875,-0.516357421875,0.03271484375,1.19781494141,-0.114440917969,-0.167846679688
1534515616.20.872314453125,-0.51416015625,0.0302734375,1.38092041016,-0.167846679688,-0.030517578125
1534515616.20.86865234375,-0.51171875,0.027099609375,1.36566162109,-0.0839233398438,0.129699707031
1534515616.20.8681640625,-0.51416015625,0.0283203125,1.29699707031,0.0991821289062,0.0152587890625
1534515616.210.869873046875,-0.51611328125,0.0283203125,1.31225585938,-0.175476074219,0.114440917969
1534515616.210.87548828125,-0.5146484375,0.029052734375,1.26647949219,-0.602722167969,0.18310546875
1534515616.210.87548828125,-0.51806640625,0.02783203125,1.41906738281,-0.205993652344,0.129699707031
1534515616.210.87158203125,-0.516845703125,0.028076171875,1.43432617188,0.0228881835938,0.289916992188
1534515616.220.868896484375,-0.51513671875,0.0341796875,1.5869140625,-0.0228881835938,0.152587890625
1534515616.220.87060546875,-0.515625,0.0322265625,1.5869140625,-0.0457763671875,0.267028808594
1534515616.220.871826171875,-0.51123046875,0.030029296875,1.60217285156,-0.00762939453125,0.396728515625
1534515616.220.874755859375,-0.511474609375,0.029052734375,1.55639648438,0.358581542969,0.373840332031
1534515616.220.87255859375,-0.512451171875,0.02685546875,1.35803222656,0.251770019531,0.312805175781
1534515616.220.870849609375,-0.5205078125,0.02783203125,1.57928466797,-0.0457763671875,0.480651855469
1534515616.220.8720703125,-0.515380859375,0.03076171875,1.52587890625,0.312805175781,0.465393066406
1534515616.230.872802734375,-0.51611328125,0.02587890625,1.77001953125,0.556945800781,0.137329101562
1534515616.230.87158203125,-0.514892578125,0.02783203125,1.38092041016,0.534057617188,-0.030517578125
1534515616.230.87451171875,-0.517333984375,0.02294921875,1.54113769531,0.3662109375,-0.160217285156
1534515616.230.871337890625,-0.515869140625,0.02490234375,1.64031982422,0.617980957031,-0.175476074219
1534515616.240.87158203125,-0.51416015625,0.025390625,1.76239013672,0.938415527344,-0.732421875
1534515616.240.871337890625,-0.51611328125,0.02978515625,1.71661376953,0.823974609375,-0.923156738281
1534515616.240.8701171875,-0.516357421875,0.023681640625,1.5869140625,0.6103515625,-0.831604003906
1534515616.250.8701171875,-0.51708984375,0.025390625,1.66320800781,0.8544921875,-0.930786132812
1534515616.250.869384765625,-0.518310546875,0.028076171875,1.77764892578,1.03759765625,-1.22833251953
1534515616.250.8701171875,-0.513916015625,0.022705078125,1.92260742188,1.19781494141,-1.54876708984
1534515616.250.8671875,-0.5146484375,0.027587890625,1.91497802734,1.29699707031,-1.60217285156
1534515616.250.869384765625,-0.5166015625,0.029541015625,2.15148925781,1.26647949219,-1.51062011719
1534515616.250.87060546875,-0.514404296875,0.026611328125,1.81579589844,1.29699707031,-1.60980224609
1534515616.260.8720703125,-0.517333984375,0.02783203125,1.80053710938,1.45721435547,-1.90734863281
1534515616.260.873779296875,-0.515625,0.0263671875,1.99127197266,1.35803222656,-2.00653076172
1534515616.260.871337890625,-0.511474609375,0.0244140625,1.99890136719,1.31988525391,-2.10571289062
1534515616.260.8681640625,-0.512451171875,0.024658203125,1.97601318359,1.21307373047,-1.80053710938
1534515616.260.86767578125,-0.514404296875,0.026123046875,1.80053710938,1.29699707031,-1.80053710938
1534515616.270.867919921875,-0.51123046875,0.024169921875,1.84631347656,1.41143798828,-1.90734863281
1534515616.270.870361328125,-0.51123046875,0.02587890625,1.66320800781,1.25122070312,-1.82342529297
1534515616.270.867919921875,-0.514892578125,0.02490234375,1.60980224609,1.02996826172,-2.01416015625
1534515616.270.871337890625,-0.5185546875,0.0283203125,1.84631347656,1.05285644531,-2.05993652344
1534515616.270.8740234375,-0.51806640625,0.029052734375,1.64794921875,1.26647949219,-1.81579589844
1534515616.280.87109375,-0.515869140625,0.023681640625,1.52587890625,1.17492675781,-1.73950195312
1534515616.280.871337890625,-0.51171875,0.02685546875,1.60980224609,1.06048583984,-1.63269042969
1534515616.280.87255859375,-0.513671875,0.029052734375,1.77764892578,0.938415527344,-1.76239013672
1534515616.280.874755859375,-0.517578125,0.027099609375,1.75476074219,0.686645507812,-0.923156738281
1534515616.290.873046875,-0.51513671875,0.021484375,1.48010253906,0.503540039062,-1.15203857422
1534515616.290.87255859375,-0.517333984375,0.025390625,1.67846679688,0.747680664062,-0.79345703125
1534515616.290.873046875,-0.517333984375,0.028564453125,1.35803222656,0.923156738281,-0.503540039062
1534515616.290.87158203125,-0.51806640625,0.029541015625,1.30462646484,0.755310058594,-0.404357910156
1534515616.30.869384765625,-0.515869140625,0.02587890625,1.5869140625,0.54931640625,0.030517578125
1534515616.30.875732421875,-0.513916015625,0.032958984375,1.63269042969,0.450134277344,0.18310546875
1534515616.30.87451171875,-0.5126953125,0.031005859375,1.70135498047,0.42724609375,0.335693359375
1534515616.30.872314453125,-0.514892578125,0.028564453125,1.59454345703,0.411987304688,0.274658203125
1534515616.30.8740234375,-0.514892578125,0.028564453125,1.67083740234,0.274658203125,0.358581542969
1534515616.30.87353515625,-0.514892578125,0.0302734375,1.57928466797,0.274658203125,0.350952148438
1534515616.30.87255859375,-0.518310546875,0.03466796875,1.66320800781,0.389099121094,0.3662109375
1534515616.310.873779296875,-0.51953125,0.03271484375,1.67846679688,0.144958496094,0.419616699219
1534515616.310.871337890625,-0.519287109375,0.031494140625,1.63269042969,0.350952148438,0.434875488281
1534515616.320.87060546875,-0.5146484375,0.02685546875,1.77764892578,0.251770019531,0.129699707031
1534515616.320.869384765625,-0.516357421875,0.029296875,1.86920166016,0.442504882812,0.0457763671875
1534515616.320.87158203125,-0.513427734375,0.032958984375,1.5869140625,0.801086425781,0.106811523438
1534515616.320.869873046875,-0.515625,0.03125,1.32751464844,0.968933105469,0.1220703125
1534515616.320.867431640625,-0.51953125,0.028076171875,1.38092041016,0.343322753906,0.0
1534515616.320.868408203125,-0.5166015625,0.026611328125,1.80816650391,-0.3662109375,-0.06103515625
1534515616.330.87158203125,-0.517578125,0.031982421875,1.70135498047,-0.205993652344,-0.213623046875
1534515616.330.872314453125,-0.517578125,0.026611328125,1.22833251953,0.152587890625,-0.30517578125
1534515616.330.8720703125,-0.513427734375,0.025390625,1.69372558594,0.419616699219,-0.404357910156
1534515616.330.8671875,-0.512451171875,0.02978515625,1.31988525391,0.297546386719,-0.350952148438
1534515616.340.871337890625,-0.518798828125,0.026611328125,1.5869140625,0.144958496094,-0.79345703125
1534515616.340.874267578125,-0.517578125,0.0283203125,1.26647949219,0.251770019531,-0.869750976562
1534515616.340.86767578125,-0.511962890625,0.02880859375,1.20544433594,0.343322753906,-0.930786132812
1534515616.340.8681640625,-0.513427734375,0.033447265625,1.32751464844,0.267028808594,-0.907897949219
1534515616.350.8720703125,-0.51513671875,0.03271484375,1.56402587891,0.213623046875,-0.907897949219
1534515616.350.87548828125,-0.514892578125,0.02587890625,1.74713134766,0.335693359375,-0.686645507812
1534515616.350.87158203125,-0.511962890625,0.02734375,1.77764892578,0.518798828125,-0.694274902344
1534515616.350.869140625,-0.509521484375,0.0234375,1.5869140625,0.602722167969,-0.465393066406
1534515616.360.8671875,-0.50634765625,0.0283203125,1.31225585938,0.480651855469,-0.595092773438
1534515616.360.87744140625,-0.521240234375,0.041015625,1.49536132812,0.228881835938,-0.755310058594
1534515616.370.8818359375,-0.522705078125,0.030029296875,1.28173828125,0.0457763671875,-0.67138671875
1534515616.370.8720703125,-0.51318359375,0.035400390625,1.53350830078,0.556945800781,-0.0228881835938
1534515616.370.869873046875,-0.516845703125,0.030029296875,1.61743164062,0.0762939453125,-0.259399414062
1534515616.370.873046875,-0.520263671875,0.0283203125,1.77001953125,0.0,-0.274658203125
1534515616.370.8740234375,-0.51513671875,0.029541015625,1.60980224609,0.511169433594,-0.312805175781
1534515616.370.87255859375,-0.511962890625,0.02734375,1.25885009766,0.801086425781,-0.236511230469
1534515616.370.871337890625,-0.513916015625,0.025634765625,1.39617919922,0.679016113281,-0.129699707031
1534515616.370.87158203125,-0.5146484375,0.0234375,2.01416015625,0.450134277344,-0.0839233398438
1534515616.380.876708984375,-0.510498046875,0.0341796875,1.41906738281,0.335693359375,-0.236511230469
1534515616.380.874755859375,-0.51318359375,0.02978515625,1.62506103516,0.297546386719,0.0534057617188
1534515616.390.8681640625,-0.513671875,0.03271484375,1.57165527344,0.67138671875,0.144958496094
1534515616.390.865966796875,-0.51416015625,0.025390625,1.61743164062,0.221252441406,0.0839233398438
1534515616.390.870361328125,-0.513427734375,0.02294921875,1.76239013672,0.198364257812,-0.0457763671875
1534515616.390.87353515625,-0.5146484375,0.029296875,1.32751464844,0.42724609375,-0.267028808594
1534515616.390.8720703125,-0.51416015625,0.034912109375,1.25885009766,0.144958496094,-0.274658203125
1534515616.390.87353515625,-0.51513671875,0.03369140625,1.5869140625,0.114440917969,-0.343322753906
1534515616.40.871337890625,-0.51806640625,0.0302734375,1.38092041016,0.30517578125,-0.373840332031
1534515616.40.86865234375,-0.51806640625,0.02197265625,1.32751464844,0.251770019531,-0.457763671875
1534515616.40.87109375,-0.51806640625,0.02392578125,1.54113769531,0.259399414062,-0.518798828125
1534515616.40.872314453125,-0.515625,0.022216796875,1.60980224609,0.106811523438,-0.595092773438
1534515616.410.874267578125,-0.514404296875,0.025634765625,1.69372558594,0.518798828125,-0.518798828125
1534515616.410.870849609375,-0.512939453125,0.030029296875,1.41143798828,0.3662109375,-0.503540039062
1534515616.410.86865234375,-0.513427734375,0.029052734375,1.3427734375,0.3662109375,-0.442504882812
1534515616.420.869873046875,-0.5126953125,0.03125,1.29699707031,0.419616699219,-0.373840332031
1534515616.420.87109375,-0.517578125,0.0322265625,1.39617919922,0.457763671875,-0.198364257812
1534515616.420.869384765625,-0.515380859375,0.02490234375,1.44195556641,0.755310058594,-0.175476074219
1534515616.420.8720703125,-0.515625,0.03076171875,1.77001953125,0.579833984375,0.030517578125
1534515616.420.8720703125,-0.51416015625,0.03076171875,1.46484375,0.144958496094,-0.0686645507812
1534515616.420.872314453125,-0.512939453125,0.029541015625,1.42669677734,0.213623046875,-0.1220703125
1534515616.420.873291015625,-0.512939453125,0.026123046875,1.44195556641,0.259399414062,-0.350952148438
1534515616.430.8671875,-0.51904296875,0.02685546875,1.56402587891,0.091552734375,-0.205993652344
1534515616.430.865478515625,-0.521728515625,0.022705078125,1.55639648438,0.18310546875,0.190734863281
1534515616.440.869873046875,-0.517822265625,0.03466796875,1.48010253906,0.335693359375,0.0991821289062
1534515616.440.873046875,-0.519775390625,0.03271484375,1.49536132812,0.3662109375,0.0
1534515616.440.873046875,-0.520751953125,0.0302734375,1.54876708984,0.312805175781,0.0686645507812
1534515616.440.870361328125,-0.516845703125,0.024658203125,1.39617919922,0.152587890625,0.213623046875
1534515616.440.869384765625,-0.516845703125,0.0234375,1.47247314453,0.0534057617188,-0.0534057617188
1534515616.440.870361328125,-0.51806640625,0.026611328125,1.35803222656,-0.0381469726562,0.0457763671875
1534515616.450.8720703125,-0.51611328125,0.025390625,1.60217285156,0.213623046875,0.137329101562
1534515616.450.873779296875,-0.51708984375,0.02783203125,1.60980224609,0.213623046875,-0.030517578125
1534515616.450.873779296875,-0.5146484375,0.02734375,1.35803222656,0.625610351562,-0.129699707031
1534515616.450.873291015625,-0.515625,0.028076171875,1.37329101562,0.396728515625,-0.106811523438
1534515616.450.86962890625,-0.517333984375,0.02734375,1.51062011719,0.18310546875,-0.137329101562
1534515616.460.869384765625,-0.51611328125,0.0244140625,1.47247314453,0.106811523438,-0.18310546875
1534515616.460.872314453125,-0.5146484375,0.02978515625,1.22833251953,0.114440917969,-0.396728515625
1534515616.460.875,-0.515625,0.03125,1.35040283203,0.0534057617188,-0.556945800781
1534515616.470.869873046875,-0.514892578125,0.031005859375,1.31988525391,0.419616699219,-0.450134277344
1534515616.470.872802734375,-0.513427734375,0.029052734375,1.42669677734,0.358581542969,-0.450134277344
1534515616.470.87109375,-0.513427734375,0.0302734375,1.38092041016,0.00762939453125,-0.556945800781
1534515616.470.874267578125,-0.5146484375,0.02685546875,1.27410888672,0.0762939453125,-0.572204589844
1534515616.470.874755859375,-0.514892578125,0.0234375,1.35803222656,0.564575195312,-0.54931640625
1534515616.470.87353515625,-0.513671875,0.02392578125,1.31225585938,0.511169433594,-0.579833984375
1534515616.470.876220703125,-0.513916015625,0.02587890625,1.52587890625,0.358581542969,-0.381469726562
1534515616.480.87744140625,-0.5146484375,0.03125,1.47247314453,0.358581542969,-0.297546386719
1534515616.480.87353515625,-0.51513671875,0.027587890625,1.44958496094,0.320434570312,-0.114440917969
1534515616.480.872802734375,-0.513916015625,0.029296875,1.64794921875,0.175476074219,-0.06103515625
1534515616.490.87158203125,-0.51123046875,0.03076171875,1.61743164062,0.30517578125,-0.167846679688
1534515616.490.872314453125,-0.51318359375,0.033203125,1.51062011719,0.411987304688,-0.160217285156
1534515616.490.877685546875,-0.514892578125,0.028564453125,1.60217285156,0.358581542969,-0.152587890625
1534515616.490.875732421875,-0.517578125,0.0361328125,1.66320800781,0.0686645507812,0.0839233398438
1534515616.490.873779296875,-0.51708984375,0.034423828125,1.38092041016,0.18310546875,0.00762939453125
1534515616.50.87158203125,-0.51220703125,0.0244140625,1.51824951172,0.480651855469,0.1220703125
1534515616.50.869873046875,-0.51513671875,0.0263671875,1.50299072266,0.503540039062,0.129699707031
1534515616.50.87109375,-0.515625,0.025146484375,1.47247314453,0.343322753906,0.198364257812
1534515616.50.865478515625,-0.511962890625,0.021240234375,1.60980224609,0.282287597656,0.251770019531
1534515616.510.867919921875,-0.515625,0.0263671875,1.60217285156,0.587463378906,-0.030517578125
1534515616.510.873291015625,-0.513671875,0.0224609375,1.708984375,0.411987304688,0.030517578125
1534515616.510.873291015625,-0.51806640625,0.029296875,1.55639648438,0.503540039062,-0.152587890625
1534515616.510.874755859375,-0.5166015625,0.029541015625,1.47247314453,0.328063964844,-0.244140625
1534515616.510.875,-0.515380859375,0.031494140625,1.57928466797,0.282287597656,-0.282287597656
1534515616.510.87255859375,-0.51904296875,0.031982421875,1.54876708984,0.236511230469,-0.457763671875
1534515616.520.875,-0.520263671875,0.031005859375,1.53350830078,0.18310546875,-0.350952148438
1534515616.520.87255859375,-0.51806640625,0.028564453125,1.54113769531,0.175476074219,-0.221252441406
1534515616.520.872802734375,-0.5166015625,0.025146484375,1.47247314453,0.48828125,-0.274658203125
1534515616.520.870361328125,-0.521728515625,0.02978515625,1.38854980469,0.747680664062,-0.54931640625
1534515616.520.875,-0.519287109375,0.025146484375,1.66320800781,0.79345703125,-0.579833984375
1534515616.520.875,-0.51611328125,0.0205078125,1.68609619141,0.640869140625,-0.518798828125
1534515616.530.871826171875,-0.517333984375,0.020751953125,1.51824951172,0.923156738281,-0.343322753906
1534515616.530.870361328125,-0.511962890625,0.02392578125,1.54876708984,0.54931640625,-0.656127929688
1534515616.530.868896484375,-0.516845703125,0.025390625,1.59454345703,0.801086425781,-0.648498535156
1534515616.530.874267578125,-0.516357421875,0.023681640625,1.55639648438,0.740051269531,-0.54931640625
1534515616.530.871826171875,-0.517822265625,0.024658203125,1.73187255859,0.709533691406,-0.8544921875
1534515616.540.87158203125,-0.517822265625,0.023193359375,1.88446044922,0.511169433594,-0.8544921875
1534515616.540.87109375,-0.51904296875,0.0234375,1.70135498047,0.457763671875,-0.602722167969
1534515616.540.868896484375,-0.52197265625,0.028564453125,1.64794921875,0.656127929688,-0.67138671875
1534515616.550.867919921875,-0.520263671875,0.031982421875,1.73187255859,0.679016113281,-0.6103515625
1534515616.550.874267578125,-0.517333984375,0.028076171875,1.61743164062,0.717163085938,-0.724792480469
1534515616.550.867919921875,-0.51611328125,0.029541015625,1.50299072266,0.877380371094,-0.679016113281
1534515616.550.8720703125,-0.51171875,0.0283203125,1.63269042969,0.48828125,-0.747680664062
1534515616.550.875,-0.51513671875,0.029052734375,1.71661376953,0.595092773438,-1.02996826172
1534515616.550.870361328125,-0.5166015625,0.02783203125,1.70135498047,0.640869140625,-0.91552734375
1534515616.550.869873046875,-0.520263671875,0.03076171875,1.64794921875,0.8544921875,-0.8544921875
1534515616.560.869384765625,-0.520263671875,0.028564453125,1.46484375,0.869750976562,-0.999450683594
1534515616.560.870849609375,-0.517333984375,0.032958984375,1.73187255859,0.587463378906,-1.00708007812
1534515616.560.87109375,-0.518310546875,0.032470703125,1.73187255859,0.656127929688,-0.923156738281
1534515616.570.87158203125,-0.51708984375,0.030029296875,1.66320800781,0.885009765625,-0.953674316406
1534515616.570.87158203125,-0.51611328125,0.031005859375,1.45721435547,0.808715820312,-0.8544921875
1534515616.570.87158203125,-0.515625,0.029541015625,1.39617919922,0.79345703125,-0.930786132812
1534515616.570.870849609375,-0.516845703125,0.031005859375,1.43432617188,0.6103515625,-1.02233886719
1534515616.570.870849609375,-0.5185546875,0.029052734375,1.41143798828,0.473022460938,-1.09100341797
1534515616.570.873046875,-0.51904296875,0.02734375,1.51062011719,0.747680664062,-0.839233398438
1534515616.580.873779296875,-0.51318359375,0.027099609375,1.86920166016,0.595092773438,-0.91552734375
1534515616.580.87109375,-0.514404296875,0.0302734375,1.73950195312,0.450134277344,-0.877380371094
1534515616.580.87109375,-0.512451171875,0.026123046875,1.60980224609,0.663757324219,-0.862121582031
1534515616.590.871337890625,-0.513427734375,0.020751953125,1.55639648438,0.686645507812,-0.709533691406
1534515616.590.876220703125,-0.51318359375,0.02685546875,1.57165527344,1.17492675781,-0.778198242188
1534515616.590.8759765625,-0.513671875,0.037109375,1.52587890625,0.923156738281,-0.816345214844
1534515616.590.872314453125,-0.510009765625,0.03173828125,1.49536132812,1.05285644531,-0.663757324219
1534515616.60.874267578125,-0.517333984375,0.032958984375,1.99890136719,0.526428222656,-0.869750976562
1534515616.60.870361328125,-0.513916015625,0.0283203125,1.98364257812,0.564575195312,-0.709533691406
1534515616.610.869140625,-0.514892578125,0.03173828125,1.82342529297,0.656127929688,-0.625610351562
1534515616.610.867431640625,-0.514892578125,0.03125,1.60980224609,0.625610351562,-0.564575195312
1534515616.610.873291015625,-0.5185546875,0.034423828125,1.86920166016,0.877380371094,-0.694274902344
1534515616.610.87109375,-0.515869140625,0.028076171875,1.94549560547,1.02996826172,-0.579833984375
1534515616.610.87255859375,-0.515625,0.02734375,1.75476074219,0.885009765625,-0.556945800781
1534515616.620.872314453125,-0.517333984375,0.0263671875,1.63269042969,0.885009765625,-0.892639160156
1534515616.620.875,-0.512451171875,0.028076171875,1.54876708984,0.67138671875,-1.12915039062
1534515616.620.87451171875,-0.513916015625,0.022216796875,1.74713134766,0.846862792969,-0.900268554688
1534515616.620.872802734375,-0.51904296875,0.02978515625,1.64794921875,0.984191894531,-0.785827636719
1534515616.620.8720703125,-0.519775390625,0.028564453125,1.63269042969,0.930786132812,-1.04522705078
1534515616.620.870361328125,-0.5166015625,0.02880859375,1.67846679688,1.01470947266,-1.14440917969
1534515616.630.87353515625,-0.516357421875,0.03173828125,1.57165527344,0.701904296875,-0.930786132812
1534515616.630.873779296875,-0.514892578125,0.03173828125,1.67083740234,0.625610351562,-1.12915039062
1534515616.630.870361328125,-0.514404296875,0.031005859375,1.49536132812,0.457763671875,-0.991821289062
1534515616.640.875,-0.518310546875,0.02783203125,1.71661376953,0.152587890625,-0.816345214844
1534515616.640.875732421875,-0.51708984375,0.024169921875,1.66320800781,0.434875488281,-0.762939453125
1534515616.640.87353515625,-0.51513671875,0.0224609375,1.43432617188,0.6103515625,-0.984191894531
1534515616.640.87158203125,-0.514404296875,0.0283203125,1.44195556641,0.617980957031,-1.01470947266
1534515616.640.873779296875,-0.515625,0.02734375,1.47247314453,0.785827636719,-0.91552734375
1534515616.640.8740234375,-0.5107421875,0.025634765625,1.49536132812,0.6103515625,-0.701904296875
1534515616.650.8740234375,-0.514404296875,0.0322265625,1.52587890625,0.839233398438,-0.541687011719
1534515616.650.872314453125,-0.51611328125,0.030517578125,1.91497802734,0.54931640625,-0.320434570312
1534515616.650.873779296875,-0.513671875,0.027099609375,1.77764892578,0.595092773438,-0.312805175781
1534515616.650.872802734375,-0.51513671875,0.0283203125,1.54113769531,0.503540039062,-0.190734863281
1534515616.650.869384765625,-0.513427734375,0.031982421875,1.33514404297,0.404357910156,-0.152587890625
1534515616.650.87109375,-0.51416015625,0.030029296875,1.44958496094,0.30517578125,0.0381469726562
1534515616.660.875244140625,-0.517333984375,0.027099609375,1.57928466797,0.312805175781,-0.0839233398438
1534515616.660.875244140625,-0.516845703125,0.029541015625,1.61743164062,0.442504882812,0.0839233398438
1534515616.670.870361328125,-0.5185546875,0.030517578125,1.56402587891,0.152587890625,0.274658203125
1534515616.670.876220703125,-0.51416015625,0.029541015625,1.46484375,0.42724609375,0.244140625
1534515616.670.874755859375,-0.51611328125,0.024658203125,1.54113769531,0.358581542969,-0.0152587890625
1534515616.670.87109375,-0.514892578125,0.025634765625,1.62506103516,0.259399414062,-0.0686645507812
1534515616.670.869873046875,-0.51611328125,0.02978515625,1.66320800781,0.48828125,0.0228881835938
1534515616.670.870361328125,-0.51416015625,0.0302734375,1.61743164062,0.320434570312,0.0152587890625
1534515616.670.871826171875,-0.514404296875,0.02783203125,1.64794921875,0.320434570312,0.00762939453125
1534515616.670.872802734375,-0.5146484375,0.0234375,1.61743164062,0.350952148438,-0.06103515625
1534515616.680.87158203125,-0.51220703125,0.02001953125,1.64031982422,0.320434570312,-0.30517578125
1534515616.680.87060546875,-0.511474609375,0.025634765625,1.69372558594,0.465393066406,-0.679016113281
1534515616.680.8720703125,-0.51416015625,0.0283203125,1.64794921875,0.602722167969,-0.587463378906
1534515616.690.8701171875,-0.51611328125,0.03125,1.63269042969,0.419616699219,-0.534057617188
1534515616.690.873779296875,-0.515869140625,0.029296875,1.51062011719,0.30517578125,-0.457763671875
1534515616.690.87548828125,-0.517578125,0.025390625,1.38854980469,0.54931640625,-0.48828125
1534515616.690.874755859375,-0.517822265625,0.02734375,1.38854980469,0.701904296875,-0.579833984375
1534515616.690.873779296875,-0.51611328125,0.030029296875,1.27410888672,0.373840332031,-0.518798828125
1534515616.70.870361328125,-0.513427734375,0.031005859375,1.60217285156,0.579833984375,-0.617980957031
1534515616.70.87060546875,-0.51611328125,0.029296875,1.52587890625,0.564575195312,-0.587463378906
1534515616.70.871337890625,-0.513916015625,0.02783203125,1.48010253906,0.457763671875,-0.617980957031
1534515616.710.871826171875,-0.51708984375,0.027587890625,1.51062011719,0.0686645507812,-0.747680664062
1534515616.710.874267578125,-0.515869140625,0.02880859375,1.55639648438,0.328063964844,-0.419616699219
1534515616.710.876220703125,-0.51708984375,0.03076171875,1.49536132812,0.473022460938,-0.274658203125
1534515616.710.876953125,-0.52001953125,0.028564453125,1.51824951172,0.617980957031,-0.541687011719
1534515616.710.8740234375,-0.51513671875,0.029296875,1.63269042969,0.343322753906,-0.389099121094
1534515616.710.870849609375,-0.513671875,0.029052734375,1.69372558594,0.106811523438,-0.282287597656
1534515616.710.87255859375,-0.51513671875,0.028076171875,1.39617919922,0.190734863281,-0.167846679688
1534515616.710.874755859375,-0.516357421875,0.02734375,1.35803222656,0.30517578125,0.0381469726562
1534515616.720.873046875,-0.515625,0.0283203125,1.77764892578,0.396728515625,0.091552734375
1534515616.720.87353515625,-0.516845703125,0.030029296875,1.60980224609,0.350952148438,0.152587890625
1534515616.720.874267578125,-0.5166015625,0.0263671875,1.67846679688,0.259399414062,0.213623046875
1534515616.730.87060546875,-0.517578125,0.027587890625,1.47247314453,0.251770019531,0.289916992188
1534515616.730.870361328125,-0.514404296875,0.034423828125,1.59454345703,0.381469726562,0.0381469726562
1534515616.730.870361328125,-0.515869140625,0.03125,1.54876708984,0.404357910156,-0.0152587890625
1534515616.730.872802734375,-0.516357421875,0.02783203125,1.63269042969,0.282287597656,0.0534057617188
1534515616.730.875,-0.515625,0.03271484375,1.80053710938,0.282287597656,0.152587890625
1534515616.740.876220703125,-0.5166015625,0.03125,1.49536132812,0.442504882812,0.18310546875
1534515616.740.869384765625,-0.513427734375,0.026611328125,1.46484375,0.381469726562,0.198364257812
1534515616.740.866943359375,-0.5166015625,0.029296875,1.72424316406,0.465393066406,-0.0534057617188
1534515616.740.8701171875,-0.51416015625,0.029052734375,1.61743164062,0.480651855469,-0.312805175781
1534515616.740.8740234375,-0.513671875,0.024658203125,1.41143798828,0.389099121094,-0.0381469726562
1534515616.740.87158203125,-0.514892578125,0.02490234375,1.47247314453,0.205993652344,0.091552734375
1534515616.740.8701171875,-0.518310546875,0.030029296875,1.47247314453,0.350952148438,-0.0534057617188
1534515616.750.869873046875,-0.520751953125,0.03125,1.50299072266,0.297546386719,-0.633239746094
1534515616.760.873291015625,-0.518798828125,0.034912109375,1.26647949219,0.244140625,-0.480651855469
1534515616.760.87646484375,-0.517333984375,0.03173828125,1.44195556641,0.541687011719,-0.526428222656
1534515616.760.874267578125,-0.51708984375,0.03173828125,1.60217285156,0.48828125,-0.503540039062
1534515616.760.87109375,-0.514404296875,0.027587890625,1.43432617188,0.3662109375,-0.511169433594
1534515616.760.871337890625,-0.516845703125,0.027587890625,1.46484375,0.358581542969,-0.556945800781
1534515616.770.87109375,-0.519775390625,0.027099609375,1.29699707031,0.373840332031,-0.54931640625
1534515616.770.87451171875,-0.517578125,0.028564453125,1.42669677734,0.358581542969,-0.663757324219
1534515616.770.87255859375,-0.519775390625,0.036376953125,1.49536132812,0.236511230469,-0.785827636719
1534515616.770.87109375,-0.51416015625,0.02734375,1.51824951172,0.343322753906,-0.572204589844
1534515616.780.873291015625,-0.51416015625,0.02392578125,1.53350830078,0.411987304688,-0.67138671875
1534515616.780.871826171875,-0.520263671875,0.0302734375,1.35040283203,0.54931640625,-0.709533691406
1534515616.780.87353515625,-0.518798828125,0.03125,1.43432617188,0.556945800781,-0.48828125
1534515616.780.8720703125,-0.513916015625,0.027587890625,1.54876708984,0.457763671875,-0.320434570312
1534515616.780.8671875,-0.513916015625,0.024658203125,1.56402587891,0.274658203125,-0.289916992188
1534515616.780.870849609375,-0.51611328125,0.027587890625,1.46484375,0.434875488281,-0.350952148438
1534515616.790.87353515625,-0.515869140625,0.028564453125,1.67846679688,0.42724609375,-0.251770019531
1534515616.790.871337890625,-0.5185546875,0.03173828125,1.55639648438,0.358581542969,-0.312805175781
1534515616.790.875,-0.516845703125,0.0263671875,1.51824951172,0.434875488281,-0.358581542969
1534515616.790.870849609375,-0.51513671875,0.02880859375,1.43432617188,0.564575195312,-0.442504882812
1534515616.790.868408203125,-0.518798828125,0.0302734375,1.48010253906,0.579833984375,-0.450134277344
1534515616.80.871337890625,-0.517822265625,0.031494140625,1.71661376953,0.564575195312,-0.343322753906
1534515616.80.875244140625,-0.510986328125,0.03369140625,1.72424316406,0.373840332031,-0.335693359375
1534515616.810.876708984375,-0.51171875,0.02978515625,1.63269042969,0.244140625,-0.6103515625
1534515616.810.8701171875,-0.510498046875,0.030517578125,1.63269042969,0.740051269531,-0.350952148438
1534515616.810.867919921875,-0.513427734375,0.034423828125,1.64794921875,0.595092773438,-0.602722167969
1534515616.810.870361328125,-0.5146484375,0.03271484375,1.61743164062,0.648498535156,-0.3662109375
1534515616.810.87158203125,-0.51416015625,0.03173828125,1.40380859375,0.6103515625,-0.312805175781
1534515616.810.87255859375,-0.516845703125,0.03125,1.44195556641,0.6103515625,-0.228881835938
1534515616.810.874755859375,-0.513427734375,0.02880859375,1.51062011719,0.442504882812,-0.114440917969
1534515616.820.8740234375,-0.511962890625,0.029296875,1.48773193359,0.434875488281,-0.587463378906
1534515616.820.870849609375,-0.518798828125,0.0302734375,1.47247314453,0.396728515625,-0.541687011719
1534515616.820.8740234375,-0.51416015625,0.02392578125,1.5869140625,0.267028808594,-0.3662109375
1534515616.830.87451171875,-0.514892578125,0.022216796875,1.67846679688,0.198364257812,-0.572204589844
1534515616.830.874267578125,-0.513916015625,0.02587890625,1.73187255859,0.114440917969,-0.572204589844
1534515616.830.869873046875,-0.51416015625,0.024169921875,1.60217285156,0.42724609375,-0.419616699219
1534515616.840.87451171875,-0.515869140625,0.0244140625,1.83868408203,0.221252441406,-0.381469726562
1534515616.840.867431640625,-0.512451171875,0.02880859375,1.51824951172,0.457763671875,-0.244140625
1534515616.840.868896484375,-0.514404296875,0.024169921875,1.75476074219,0.701904296875,-0.373840332031
1534515616.840.866943359375,-0.5166015625,0.024169921875,1.88446044922,0.442504882812,-0.587463378906
1534515616.840.8662109375,-0.515380859375,0.02685546875,1.73950195312,0.42724609375,-0.282287597656
1534515616.840.87060546875,-0.515625,0.027587890625,1.69372558594,0.404357910156,-0.221252441406
1534515616.850.874267578125,-0.512451171875,0.027099609375,1.71661376953,0.579833984375,-0.205993652344
1534515616.850.871826171875,-0.51708984375,0.0283203125,1.70135498047,0.396728515625,-0.343322753906
1534515616.860.875732421875,-0.518310546875,0.028564453125,1.66320800781,0.541687011719,-0.450134277344
1534515616.860.872314453125,-0.517333984375,0.02978515625,1.57165527344,0.511169433594,-0.572204589844
1534515616.860.871826171875,-0.519775390625,0.029541015625,1.56402587891,0.167846679688,-0.572204589844
1534515616.860.869873046875,-0.522216796875,0.0283203125,1.62506103516,0.442504882812,-0.442504882812
1534515616.860.868896484375,-0.51708984375,0.031005859375,1.65557861328,0.67138671875,-0.259399414062
1534515616.860.869873046875,-0.51611328125,0.0283203125,1.55639648438,0.396728515625,-0.373840332031
1534515616.860.870361328125,-0.515625,0.0234375,1.37329101562,0.511169433594,-0.541687011719
1534515616.870.8720703125,-0.51611328125,0.029052734375,1.40380859375,0.740051269531,-0.48828125
1534515616.870.8681640625,-0.51318359375,0.027099609375,1.56402587891,0.511169433594,-0.625610351562
1534515616.880.87060546875,-0.516357421875,0.02587890625,1.57165527344,0.633239746094,-0.732421875
1534515616.880.87158203125,-0.51708984375,0.031982421875,1.72424316406,0.762939453125,-0.717163085938
1534515616.880.870849609375,-0.51708984375,0.03076171875,1.64031982422,0.755310058594,-0.633239746094
1534515616.880.86865234375,-0.515869140625,0.031494140625,1.61743164062,0.617980957031,-0.633239746094
1534515616.880.87060546875,-0.513671875,0.030029296875,1.54113769531,0.411987304688,-0.617980957031
1534515616.880.87060546875,-0.513671875,0.02783203125,1.73950195312,0.656127929688,-0.511169433594
1534515616.880.871337890625,-0.513916015625,0.026611328125,1.71661376953,0.770568847656,-0.617980957031
1534515616.880.868896484375,-0.512939453125,0.02490234375,1.45721435547,0.48828125,-0.717163085938
1534515616.890.8701171875,-0.51611328125,0.029052734375,1.48010253906,0.6103515625,-0.633239746094
1534515616.890.875732421875,-0.5166015625,0.02783203125,1.64794921875,0.846862792969,-0.617980957031
1534515616.90.873046875,-0.511474609375,0.023193359375,1.61743164062,0.717163085938,-0.511169433594
1534515616.90.872802734375,-0.51171875,0.0244140625,1.70135498047,0.511169433594,-0.411987304688
1534515616.90.87255859375,-0.513916015625,0.023681640625,1.38092041016,0.244140625,-0.625610351562
1534515616.90.87255859375,-0.51806640625,0.0283203125,1.62506103516,0.396728515625,-0.6103515625
1534515616.90.871337890625,-0.515869140625,0.0283203125,1.67846679688,0.564575195312,-0.579833984375
1534515616.90.8720703125,-0.51318359375,0.024658203125,1.38092041016,0.572204589844,-0.679016113281
1534515616.910.873779296875,-0.5146484375,0.027099609375,1.27410888672,0.3662109375,-0.724792480469
1534515616.910.873046875,-0.516357421875,0.02587890625,1.69372558594,0.404357910156,-0.785827636719
1534515616.910.8701171875,-0.516357421875,0.0341796875,1.54876708984,0.6103515625,-0.633239746094
1534515616.910.870361328125,-0.514892578125,0.029296875,1.37329101562,0.556945800781,-0.419616699219
1534515616.920.872314453125,-0.51123046875,0.027099609375,1.45721435547,0.457763671875,-0.328063964844
1534515616.920.87451171875,-0.51416015625,0.029541015625,1.50299072266,0.495910644531,-0.480651855469
1534515616.920.871337890625,-0.51708984375,0.033203125,1.63269042969,0.411987304688,-0.419616699219
1534515616.930.871826171875,-0.51708984375,0.031494140625,1.52587890625,0.640869140625,-0.42724609375
1534515616.930.87353515625,-0.5126953125,0.031494140625,1.45721435547,0.450134277344,-0.358581542969
1534515616.930.871826171875,-0.50927734375,0.028564453125,1.66320800781,0.518798828125,-0.213623046875
1534515616.930.87158203125,-0.510498046875,0.025146484375,1.60217285156,0.457763671875,-0.213623046875
1534515616.930.87158203125,-0.5126953125,0.023193359375,1.43432617188,0.312805175781,-0.6103515625
1534515616.930.87158203125,-0.510498046875,0.030517578125,1.64794921875,0.694274902344,-0.8544921875
1534515616.940.875244140625,-0.513427734375,0.02734375,1.80816650391,0.480651855469,-0.679016113281
1534515616.940.873291015625,-0.519287109375,0.036376953125,1.62506103516,0.526428222656,-0.701904296875
1534515616.940.873046875,-0.52099609375,0.0322265625,1.57165527344,0.572204589844,-0.625610351562
1534515616.940.873046875,-0.5166015625,0.0302734375,1.53350830078,0.679016113281,-0.6103515625
1534515616.940.873046875,-0.509765625,0.034423828125,1.48773193359,0.816345214844,-0.42724609375
1534515616.940.87451171875,-0.510986328125,0.028564453125,1.56402587891,0.762939453125,-0.335693359375
1534515616.940.876220703125,-0.5126953125,0.025146484375,1.64794921875,0.724792480469,-0.3662109375
1534515616.950.87841796875,-0.513427734375,0.026611328125,1.43432617188,0.831604003906,-0.434875488281
1534515616.950.87548828125,-0.514404296875,0.030029296875,1.56402587891,0.419616699219,-0.694274902344
1534515616.960.875244140625,-0.51416015625,0.03125,1.35803222656,0.694274902344,-0.6103515625
1534515616.960.87255859375,-0.518798828125,0.031982421875,1.47247314453,0.465393066406,-0.633239746094
1534515616.960.873291015625,-0.51708984375,0.0283203125,1.60980224609,0.343322753906,-0.480651855469
1534515616.960.87158203125,-0.51416015625,0.02587890625,1.72424316406,0.091552734375,-0.633239746094
1534515616.960.86962890625,-0.51123046875,0.025634765625,1.5869140625,0.213623046875,-0.595092773438
1534515616.960.87060546875,-0.51513671875,0.025634765625,1.53350830078,0.396728515625,-0.572204589844
1534515616.960.873046875,-0.51513671875,0.0244140625,1.47247314453,0.595092773438,-0.633239746094
1534515616.970.873779296875,-0.516357421875,0.021728515625,1.37329101562,0.495910644531,-0.6103515625
1534515616.970.8759765625,-0.514404296875,0.029541015625,1.61743164062,0.42724609375,-0.79345703125
1534515616.970.87255859375,-0.515869140625,0.03369140625,1.59454345703,0.595092773438,-0.556945800781
1534515616.980.872802734375,-0.5126953125,0.03173828125,1.31225585938,0.785827636719,-0.701904296875
1534515616.980.87158203125,-0.5126953125,0.025146484375,1.33514404297,0.320434570312,-0.503540039062
1534515616.980.874267578125,-0.513671875,0.026123046875,1.33514404297,0.404357910156,-0.411987304688
1534515616.980.8740234375,-0.513671875,0.029541015625,1.41143798828,0.42724609375,-0.30517578125
1534515616.980.87158203125,-0.512939453125,0.032470703125,1.67083740234,0.42724609375,-0.198364257812
1534515616.980.871337890625,-0.51416015625,0.033203125,1.44958496094,0.312805175781,-0.244140625
1534515616.980.8720703125,-0.515625,0.0322265625,1.51824951172,0.404357910156,-0.190734863281
1534515616.990.87158203125,-0.51318359375,0.0302734375,1.52587890625,0.419616699219,-0.236511230469
1534515616.990.87255859375,-0.512939453125,0.02880859375,1.55639648438,0.358581542969,-0.343322753906
1534515616.990.873291015625,-0.51611328125,0.029541015625,1.57928466797,0.244140625,-0.129699707031
1534515617.00.872314453125,-0.5126953125,0.02880859375,1.72424316406,0.457763671875,-0.129699707031
1534515617.00.87060546875,-0.514892578125,0.02490234375,1.51062011719,0.473022460938,-0.144958496094
1534515617.00.87109375,-0.51318359375,0.022705078125,1.23596191406,0.541687011719,-0.18310546875
1534515617.00.869140625,-0.515869140625,0.02734375,1.44195556641,0.30517578125,-0.152587890625
1534515617.00.87109375,-0.512451171875,0.03271484375,1.31988525391,0.137329101562,-0.167846679688
1534515617.00.87109375,-0.511962890625,0.031494140625,1.53350830078,0.0457763671875,0.0
1534515617.010.87060546875,-0.514404296875,0.031494140625,1.64794921875,0.0228881835938,-0.129699707031
1534515617.020.87158203125,-0.50927734375,0.0322265625,1.64031982422,0.244140625,-0.18310546875
1534515617.020.868896484375,-0.51220703125,0.02978515625,1.67846679688,0.1220703125,-0.0839233398438
1534515617.020.87158203125,-0.513427734375,0.02734375,1.54876708984,0.419616699219,-0.0991821289062
1534515617.020.874267578125,-0.516845703125,0.02392578125,1.47247314453,0.67138671875,-0.0839233398438
1534515617.020.875244140625,-0.5166015625,0.025390625,1.31225585938,0.373840332031,-0.06103515625
1534515617.020.87451171875,-0.51513671875,0.029541015625,1.40380859375,0.251770019531,0.198364257812
1534515617.020.872802734375,-0.5166015625,0.028564453125,1.38854980469,0.152587890625,0.0991821289062
1534515617.030.871826171875,-0.514892578125,0.02734375,1.35803222656,0.419616699219,-0.0762939453125
1534515617.030.869873046875,-0.513671875,0.02587890625,1.46484375,0.312805175781,-0.091552734375
1534515617.030.873046875,-0.514892578125,0.032470703125,1.42669677734,0.06103515625,-0.00762939453125
1534515617.030.876220703125,-0.51708984375,0.032470703125,1.25122070312,0.221252441406,-0.0228881835938
1534515617.030.87353515625,-0.5205078125,0.029541015625,1.47247314453,0.167846679688,-0.0152587890625
1534515617.040.870849609375,-0.518310546875,0.0263671875,1.66320800781,0.190734863281,-0.198364257812
1534515617.040.8671875,-0.5126953125,0.023193359375,1.60217285156,0.320434570312,-0.18310546875
1534515617.040.868896484375,-0.512939453125,0.02587890625,1.70135498047,0.457763671875,-0.480651855469
1534515617.040.87255859375,-0.514404296875,0.03076171875,1.57165527344,0.175476074219,-0.274658203125
1534515617.050.871826171875,-0.50927734375,0.026123046875,1.43432617188,0.137329101562,-0.381469726562
1534515617.050.872314453125,-0.511474609375,0.02783203125,1.38092041016,0.213623046875,-0.259399414062
1534515617.050.87109375,-0.51708984375,0.023193359375,1.31988525391,0.251770019531,-0.503540039062
1534515617.050.87255859375,-0.51806640625,0.020263671875,1.53350830078,0.312805175781,-0.602722167969
1534515617.050.875244140625,-0.515869140625,0.02294921875,1.61743164062,0.190734863281,-0.42724609375
1534515617.050.874755859375,-0.51806640625,0.025146484375,1.48010253906,0.18310546875,-0.503540039062
1534515617.060.875,-0.5185546875,0.0322265625,1.73187255859,0.42724609375,-0.404357910156
1534515617.060.874267578125,-0.513916015625,0.03173828125,1.67083740234,0.205993652344,-0.6103515625
1534515617.060.872314453125,-0.51513671875,0.026123046875,1.38854980469,0.343322753906,-0.282287597656
1534515617.060.86962890625,-0.51416015625,0.025390625,1.74713134766,0.3662109375,-0.373840332031
1534515617.070.87451171875,-0.51513671875,0.03173828125,1.28173828125,0.526428222656,-0.221252441406
1534515617.070.873046875,-0.5126953125,0.03125,1.50299072266,0.511169433594,-0.205993652344
1534515617.070.871337890625,-0.512939453125,0.02490234375,1.48773193359,0.511169433594,-0.152587890625
1534515617.080.87255859375,-0.516357421875,0.032958984375,1.54113769531,0.274658203125,-0.617980957031
1534515617.080.873046875,-0.51318359375,0.03173828125,1.60217285156,0.457763671875,-0.495910644531
1534515617.080.870849609375,-0.5146484375,0.0302734375,1.52587890625,0.396728515625,-0.244140625
1534515617.090.8759765625,-0.5146484375,0.033447265625,1.26647949219,0.312805175781,-0.335693359375
1534515617.090.872314453125,-0.5146484375,0.029296875,1.29699707031,0.419616699219,-0.244140625
1534515617.090.8720703125,-0.515625,0.024169921875,1.57165527344,0.396728515625,-0.167846679688
1534515617.090.87158203125,-0.5146484375,0.025390625,1.66320800781,0.175476074219,-0.30517578125
1534515617.090.86962890625,-0.51513671875,0.0302734375,1.51824951172,0.236511230469,-0.389099121094
1534515617.090.86865234375,-0.51611328125,0.031494140625,1.69372558594,0.289916992188,-0.579833984375
1534515617.10.871826171875,-0.5166015625,0.0302734375,1.61743164062,0.457763671875,-0.511169433594
1534515617.10.8701171875,-0.51611328125,0.03125,1.88446044922,0.694274902344,-0.442504882812
1534515617.10.871826171875,-0.51416015625,0.031494140625,1.78527832031,0.511169433594,-0.228881835938
1534515617.110.8720703125,-0.513671875,0.02490234375,1.38854980469,0.579833984375,-0.3662109375
1534515617.110.872314453125,-0.514892578125,0.0263671875,1.38092041016,0.518798828125,-0.48828125
1534515617.110.874267578125,-0.51806640625,0.0244140625,1.5869140625,0.595092773438,-0.572204589844
1534515617.110.872802734375,-0.515380859375,0.026123046875,1.56402587891,0.465393066406,-0.389099121094
1534515617.110.869140625,-0.512939453125,0.0302734375,1.69372558594,0.328063964844,-0.419616699219
1534515617.120.8720703125,-0.51611328125,0.024169921875,1.53350830078,0.656127929688,-0.648498535156
1534515617.120.87548828125,-0.516357421875,0.027099609375,1.49536132812,0.694274902344,-0.6103515625
1534515617.120.873046875,-0.515625,0.030517578125,1.63269042969,0.450134277344,-0.518798828125
1534515617.120.8720703125,-0.518798828125,0.029541015625,1.63269042969,0.419616699219,-0.541687011719
1534515617.120.871826171875,-0.516845703125,0.028564453125,1.65557861328,0.587463378906,-0.587463378906
1534515617.120.873046875,-0.513671875,0.02685546875,1.41143798828,0.732421875,-0.442504882812
1534515617.120.874755859375,-0.516357421875,0.0244140625,1.48773193359,0.381469726562,-0.480651855469
1534515617.130.87353515625,-0.51806640625,0.025146484375,1.45721435547,0.709533691406,-0.556945800781
1534515617.140.873779296875,-0.51953125,0.031494140625,1.53350830078,0.572204589844,-0.419616699219
1534515617.140.873291015625,-0.514892578125,0.03369140625,1.5869140625,0.457763671875,-0.579833984375
1534515617.140.86962890625,-0.515625,0.031982421875,1.60217285156,0.640869140625,-0.633239746094
1534515617.140.868896484375,-0.515625,0.031982421875,1.74713134766,0.541687011719,-0.381469726562
1534515617.140.870849609375,-0.5107421875,0.033203125,1.64031982422,0.556945800781,-0.358581542969
1534515617.140.8720703125,-0.5107421875,0.03173828125,1.38092041016,0.648498535156,-0.495910644531
1534515617.140.870849609375,-0.51025390625,0.0283203125,1.50299072266,0.602722167969,-0.572204589844
1534515617.150.873046875,-0.51171875,0.0283203125,1.64031982422,0.495910644531,-0.534057617188
1534515617.150.87158203125,-0.51220703125,0.026611328125,1.50299072266,0.595092773438,-0.633239746094
1534515617.150.87255859375,-0.512939453125,0.02734375,1.38092041016,0.740051269531,-0.595092773438
1534515617.150.87451171875,-0.517333984375,0.0322265625,1.35040283203,0.709533691406,-0.404357910156
1534515617.160.877197265625,-0.51171875,0.031982421875,1.31988525391,0.328063964844,-0.450134277344
1534515617.160.873046875,-0.513671875,0.031005859375,1.35040283203,0.343322753906,-0.404357910156
1534515617.160.87060546875,-0.517333984375,0.02978515625,1.48773193359,0.526428222656,-0.190734863281
1534515617.160.871337890625,-0.5166015625,0.029541015625,1.55639648438,0.503540039062,-0.190734863281
1534515617.170.86865234375,-0.51513671875,0.0283203125,1.48010253906,0.267028808594,-0.419616699219
1534515617.170.875,-0.513916015625,0.021728515625,1.44958496094,0.213623046875,-0.42724609375
1534515617.170.87744140625,-0.512939453125,0.025390625,1.41906738281,0.373840332031,-0.67138671875
1534515617.170.87646484375,-0.512939453125,0.02880859375,1.47247314453,0.617980957031,-0.694274902344
1534515617.170.87255859375,-0.51611328125,0.02685546875,1.51824951172,0.679016113281,-0.709533691406
1534515617.170.87158203125,-0.516357421875,0.026123046875,1.41906738281,0.579833984375,-0.503540039062
1534515617.180.872802734375,-0.515380859375,0.030517578125,1.45721435547,0.3662109375,-0.518798828125
1534515617.180.873291015625,-0.51708984375,0.03076171875,1.31225585938,0.434875488281,-0.328063964844
1534515617.180.872802734375,-0.515869140625,0.027099609375,1.48773193359,0.419616699219,-0.1220703125
1534515617.190.873046875,-0.511474609375,0.023681640625,1.54113769531,0.602722167969,-0.129699707031
1534515617.190.873779296875,-0.516357421875,0.030029296875,1.51824951172,0.663757324219,-0.190734863281
1534515617.190.869873046875,-0.515380859375,0.03271484375,1.46484375,0.503540039062,-0.198364257812
1534515617.190.87255859375,-0.515380859375,0.029541015625,1.44958496094,0.373840332031,-0.213623046875
1534515617.190.875,-0.51806640625,0.027099609375,1.47247314453,0.320434570312,-0.175476074219
1534515617.190.875,-0.5205078125,0.03466796875,1.41143798828,0.54931640625,-0.160217285156
1534515617.190.877197265625,-0.519287109375,0.026123046875,1.64031982422,0.297546386719,-0.350952148438
1534515617.20.875732421875,-0.51611328125,0.027099609375,1.48773193359,0.480651855469,-0.152587890625
1534515617.20.869873046875,-0.513916015625,0.028076171875,1.67083740234,0.228881835938,-0.18310546875
1534515617.20.860107421875,-0.509765625,0.024658203125,1.55639648438,0.267028808594,-0.0839233398438
1534515617.210.863037109375,-0.509033203125,0.028076171875,1.55639648438,0.381469726562,-0.167846679688
1534515617.210.86474609375,-0.51953125,0.021484375,1.81579589844,-0.328063964844,-0.0457763671875
1534515617.210.868408203125,-0.5224609375,0.026611328125,1.70135498047,-0.686645507812,-0.251770019531
1534515617.220.878662109375,-0.52001953125,0.032958984375,1.32751464844,0.236511230469,-0.343322753906
1534515617.220.86865234375,-0.517822265625,0.01953125,1.68609619141,0.434875488281,0.160217285156
1534515617.220.86669921875,-0.514892578125,0.024169921875,1.66320800781,-0.0152587890625,-0.091552734375
1534515617.220.8701171875,-0.51513671875,0.03271484375,1.43432617188,0.152587890625,-0.228881835938
1534515617.220.87109375,-0.51611328125,0.030029296875,1.21307373047,0.419616699219,-0.160217285156
1534515617.220.875732421875,-0.52294921875,0.027099609375,1.24359130859,0.267028808594,-0.457763671875
1534515617.230.86767578125,-0.510986328125,0.02294921875,1.28936767578,0.503540039062,-0.267028808594
1534515617.230.859130859375,-0.508544921875,0.021240234375,1.67083740234,-0.030517578125,-0.381469726562
1534515617.240.875244140625,-0.511474609375,0.036865234375,1.72424316406,0.457763671875,-0.320434570312
1534515617.240.876708984375,-0.510009765625,0.032470703125,1.29699707031,0.755310058594,-0.259399414062
1534515617.240.872802734375,-0.512451171875,0.027587890625,1.35803222656,0.755310058594,-0.320434570312
1534515617.240.868408203125,-0.513427734375,0.0244140625,1.57928466797,0.465393066406,-0.343322753906
1534515617.240.866455078125,-0.51611328125,0.019775390625,1.75476074219,0.106811523438,-0.350952148438
1534515617.240.87060546875,-0.52001953125,0.021728515625,1.66320800781,-0.091552734375,-0.213623046875
1534515617.240.875,-0.5185546875,0.026123046875,1.20544433594,0.526428222656,-0.312805175781
1534515617.240.877197265625,-0.51611328125,0.025390625,0.938415527344,0.747680664062,-0.221252441406
1534515617.250.876708984375,-0.5146484375,0.0263671875,1.37329101562,0.297546386719,-0.350952148438
1534515617.260.87255859375,-0.513671875,0.02734375,1.76239013672,0.144958496094,-0.221252441406
1534515617.260.87255859375,-0.512451171875,0.029296875,1.66320800781,0.419616699219,-0.267028808594
1534515617.260.87109375,-0.514404296875,0.028564453125,1.43432617188,0.572204589844,-0.343322753906
1534515617.260.8701171875,-0.51611328125,0.02490234375,1.56402587891,0.404357910156,-0.3662109375
1534515617.260.870361328125,-0.5166015625,0.028564453125,1.47247314453,-0.00762939453125,-0.274658203125
1534515617.260.8720703125,-0.518310546875,0.02880859375,1.48773193359,0.190734863281,-0.137329101562
1534515617.260.876953125,-0.5166015625,0.03369140625,1.57928466797,0.640869140625,-0.091552734375
1534515617.260.87744140625,-0.5166015625,0.0341796875,1.51062011719,0.663757324219,-0.236511230469
1534515617.270.873046875,-0.517333984375,0.028564453125,1.51824951172,0.534057617188,-0.579833984375
1534515617.280.872802734375,-0.515380859375,0.03076171875,1.62506103516,0.236511230469,-0.251770019531
1534515617.280.875,-0.51513671875,0.029052734375,1.53350830078,0.114440917969,-0.167846679688
1534515617.280.868408203125,-0.5146484375,0.023681640625,1.49536132812,0.3662109375,-0.3662109375
1534515617.280.871337890625,-0.513427734375,0.027099609375,1.55639648438,0.587463378906,-0.297546386719
1534515617.280.87353515625,-0.5087890625,0.030029296875,1.51062011719,0.587463378906,-0.381469726562
1534515617.280.869873046875,-0.51220703125,0.0283203125,1.39617919922,0.289916992188,-0.389099121094
1534515617.290.87158203125,-0.51318359375,0.028076171875,1.25122070312,0.518798828125,-0.396728515625
1534515617.290.87109375,-0.51416015625,0.02685546875,1.31225585938,0.297546386719,-0.251770019531
1534515617.290.8720703125,-0.510986328125,0.02587890625,1.41143798828,0.335693359375,-0.228881835938
1534515617.290.8740234375,-0.509765625,0.03125,1.46484375,0.328063964844,-0.343322753906
1534515617.290.873046875,-0.51171875,0.029052734375,1.39617919922,0.114440917969,-0.450134277344
1534515617.30.87255859375,-0.513671875,0.02587890625,1.24359130859,0.411987304688,-0.3662109375
1534515617.30.873046875,-0.514892578125,0.028564453125,1.38092041016,0.617980957031,-0.152587890625
1534515617.30.87158203125,-0.51416015625,0.031005859375,1.73187255859,0.633239746094,-0.244140625
1534515617.30.871337890625,-0.515625,0.02587890625,1.69372558594,0.595092773438,-0.3662109375
1534515617.30.873291015625,-0.51513671875,0.02392578125,1.48773193359,0.595092773438,-0.297546386719
1534515617.30.873779296875,-0.5166015625,0.028564453125,1.49536132812,0.587463378906,-0.0991821289062
1534515617.30.8720703125,-0.517578125,0.030517578125,1.20544433594,0.48828125,-0.228881835938
1534515617.30.8720703125,-0.517822265625,0.026611328125,1.36566162109,0.419616699219,-0.320434570312
1534515617.30.872314453125,-0.51806640625,0.030517578125,1.54113769531,0.419616699219,-0.373840332031
1534515617.310.870361328125,-0.51611328125,0.032958984375,1.41143798828,0.282287597656,0.030517578125
1534515617.310.867919921875,-0.51416015625,0.029296875,1.40380859375,0.106811523438,-0.106811523438
1534515617.310.869873046875,-0.513427734375,0.02783203125,1.57165527344,0.389099121094,0.0762939453125
1534515617.320.873779296875,-0.514404296875,0.024658203125,1.65557861328,0.579833984375,-0.175476074219
1534515617.320.873779296875,-0.5185546875,0.029296875,1.51062011719,0.587463378906,-0.0152587890625
1534515617.320.873046875,-0.51806640625,0.033935546875,1.40380859375,0.526428222656,-0.129699707031
1534515617.330.871337890625,-0.5185546875,0.028564453125,1.5869140625,0.320434570312,-0.0381469726562
1534515617.330.871337890625,-0.51611328125,0.0302734375,1.61743164062,0.579833984375,0.091552734375
1534515617.330.870361328125,-0.51416015625,0.027587890625,1.41906738281,0.579833984375,-0.190734863281
1534515617.330.86572265625,-0.51513671875,0.027587890625,1.54876708984,0.846862792969,-0.236511230469
1534515617.340.86767578125,-0.516357421875,0.023681640625,1.75476074219,0.679016113281,-0.297546386719
1534515617.340.86865234375,-0.515380859375,0.021484375,1.72424316406,0.640869140625,-0.358581542969
1534515617.340.867919921875,-0.51220703125,0.022705078125,1.52587890625,0.595092773438,-0.289916992188
1534515617.340.865966796875,-0.51318359375,0.024169921875,1.60217285156,0.617980957031,-0.526428222656
1534515617.340.868896484375,-0.512939453125,0.029052734375,1.50299072266,0.747680664062,-0.541687011719
1534515617.340.87353515625,-0.521728515625,0.029541015625,1.48773193359,0.701904296875,-0.617980957031
1534515617.340.8720703125,-0.51806640625,0.02685546875,1.73950195312,0.587463378906,-0.579833984375
1534515617.340.873291015625,-0.51513671875,0.02490234375,1.66320800781,0.564575195312,-0.411987304688
1534515617.350.872802734375,-0.516845703125,0.030517578125,1.57165527344,0.740051269531,-0.54931640625
1534515617.350.873291015625,-0.515869140625,0.03125,1.38092041016,0.587463378906,-0.846862792969
1534515617.350.8701171875,-0.511962890625,0.032470703125,1.35803222656,0.595092773438,-0.679016113281
1534515617.350.869873046875,-0.5126953125,0.025146484375,1.60217285156,0.572204589844,-0.717163085938
1534515617.360.87060546875,-0.51513671875,0.021484375,1.48010253906,0.762939453125,-0.900268554688
1534515617.360.87646484375,-0.517578125,0.0341796875,1.57928466797,0.419616699219,-0.663757324219
1534515617.360.877197265625,-0.517578125,0.02783203125,1.59454345703,0.511169433594,-0.877380371094
1534515617.360.875,-0.51513671875,0.025146484375,1.41906738281,0.411987304688,-1.00708007812
1534515617.370.874267578125,-0.519287109375,0.029052734375,1.59454345703,0.534057617188,-0.823974609375
1534515617.370.873046875,-0.513916015625,0.031005859375,1.43432617188,0.244140625,-0.724792480469
1534515617.370.86962890625,-0.51025390625,0.02685546875,1.41906738281,0.602722167969,-0.54931640625
1534515617.370.873291015625,-0.510498046875,0.028564453125,1.51824951172,0.617980957031,-0.534057617188
1534515617.370.874267578125,-0.512451171875,0.03173828125,1.54876708984,0.556945800781,-0.648498535156
1534515617.380.873046875,-0.514892578125,0.02587890625,1.55639648438,0.625610351562,-0.495910644531
1534515617.380.875244140625,-0.512451171875,0.027099609375,1.73187255859,0.648498535156,-0.381469726562
1534515617.380.8740234375,-0.518310546875,0.032958984375,1.65557861328,0.328063964844,-0.396728515625
1534515617.380.866943359375,-0.51513671875,0.02490234375,1.41906738281,0.389099121094,-0.358581542969
1534515617.380.869873046875,-0.515380859375,0.031005859375,1.35040283203,0.190734863281,-0.312805175781
1534515617.390.873291015625,-0.514892578125,0.027587890625,1.31225585938,0.350952148438,-0.373840332031
1534515617.390.875,-0.515380859375,0.028076171875,1.5869140625,0.709533691406,-0.450134277344
1534515617.390.877197265625,-0.513916015625,0.02587890625,1.51062011719,0.572204589844,-0.328063964844
1534515617.390.875,-0.515625,0.02392578125,1.42669677734,0.3662109375,-0.198364257812
1534515617.390.8740234375,-0.518798828125,0.0322265625,1.51062011719,0.381469726562,-0.419616699219
1534515617.390.871826171875,-0.51611328125,0.02490234375,1.47247314453,0.442504882812,-0.358581542969
1534515617.390.870361328125,-0.516845703125,0.022216796875,1.54113769531,0.48828125,-0.0839233398438
1534515617.390.87255859375,-0.518310546875,0.022216796875,1.45721435547,0.572204589844,0.152587890625
1534515617.390.87353515625,-0.5126953125,0.0244140625,1.59454345703,0.404357910156,0.0152587890625
1534515617.40.87158203125,-0.51513671875,0.025146484375,1.59454345703,0.282287597656,-0.221252441406
1534515617.40.874755859375,-0.515380859375,0.02587890625,1.3427734375,0.534057617188,-0.221252441406
1534515617.40.874267578125,-0.511962890625,0.0283203125,1.60217285156,0.473022460938,-0.373840332031
1534515617.410.875732421875,-0.513671875,0.03125,1.76239013672,0.511169433594,-0.480651855469
1534515617.410.871337890625,-0.51611328125,0.02880859375,1.45721435547,0.404357910156,-0.48828125
1534515617.410.87109375,-0.5146484375,0.027099609375,1.28173828125,0.42724609375,-0.473022460938
1534515617.410.874267578125,-0.513916015625,0.030517578125,1.60217285156,0.564575195312,-0.0686645507812
1534515617.410.873291015625,-0.513427734375,0.031982421875,1.82342529297,0.564575195312,-0.0839233398438
1534515617.410.87353515625,-0.5166015625,0.0283203125,1.57165527344,0.442504882812,-0.267028808594
1534515617.410.87255859375,-0.516845703125,0.026123046875,1.41906738281,0.343322753906,-0.595092773438
1534515617.410.869873046875,-0.514892578125,0.0263671875,1.54876708984,0.518798828125,-0.465393066406
1534515617.420.869873046875,-0.515625,0.02392578125,1.55639648438,0.534057617188,-0.381469726562
1534515617.420.870361328125,-0.515380859375,0.0302734375,1.66320800781,0.663757324219,-0.282287597656
1534515617.420.87255859375,-0.51806640625,0.033447265625,1.708984375,0.747680664062,-0.396728515625
1534515617.420.869384765625,-0.516357421875,0.031494140625,1.53350830078,0.679016113281,-0.419616699219
1534515617.430.870849609375,-0.517822265625,0.028076171875,1.38092041016,0.67138671875,-0.434875488281
1534515617.430.871826171875,-0.5146484375,0.025390625,1.24359130859,0.79345703125,-0.625610351562
1534515617.430.87060546875,-0.51171875,0.0205078125,1.57928466797,0.625610351562,-0.48828125
1534515617.430.87158203125,-0.515380859375,0.027587890625,1.35803222656,0.389099121094,-0.381469726562
1534515617.430.872314453125,-0.517333984375,0.027587890625,1.48773193359,0.587463378906,-0.343322753906
1534515617.430.873046875,-0.517578125,0.031494140625,1.51062011719,0.518798828125,-0.526428222656
1534515617.430.8720703125,-0.515869140625,0.03271484375,1.54113769531,0.320434570312,-0.564575195312
1534515617.440.870849609375,-0.51416015625,0.02783203125,1.41143798828,0.480651855469,-0.564575195312
1534515617.440.870361328125,-0.51318359375,0.025146484375,1.35040283203,0.282287597656,-0.541687011719
1534515617.440.870849609375,-0.515625,0.025146484375,1.15966796875,0.320434570312,-0.450134277344
1534515617.440.87060546875,-0.51806640625,0.0244140625,1.33514404297,0.457763671875,-0.297546386719
1534515617.440.871337890625,-0.515869140625,0.02880859375,1.48010253906,0.328063964844,-0.282287597656
1534515617.450.868896484375,-0.516845703125,0.0302734375,1.61743164062,0.0991821289062,-0.48828125
1534515617.450.874755859375,-0.51513671875,0.02978515625,1.60980224609,0.259399414062,-0.259399414062
1534515617.450.871826171875,-0.51953125,0.02734375,1.35040283203,0.312805175781,-0.152587890625
1534515617.450.87109375,-0.516357421875,0.026123046875,1.02233886719,0.3662109375,-0.152587890625
1534515617.450.87255859375,-0.513671875,0.025634765625,1.31225585938,0.450134277344,-0.0381469726562
1534515617.450.872314453125,-0.51611328125,0.02490234375,1.61743164062,0.518798828125,-0.175476074219
1534515617.450.86865234375,-0.514404296875,0.021728515625,1.5869140625,0.686645507812,-0.373840332031
1534515617.450.869384765625,-0.51220703125,0.024169921875,1.5869140625,0.396728515625,-0.160217285156
1534515617.460.8720703125,-0.5166015625,0.02734375,1.57928466797,0.3662109375,0.00762939453125
1534515617.460.87451171875,-0.5185546875,0.02783203125,1.73950195312,0.320434570312,-0.106811523438
1534515617.460.87451171875,-0.516845703125,0.02880859375,1.67083740234,0.457763671875,-0.251770019531
1534515617.460.870849609375,-0.519775390625,0.030517578125,1.50299072266,0.358581542969,-0.274658203125
1534515617.460.86767578125,-0.517333984375,0.030517578125,1.69372558594,0.457763671875,-0.0991821289062
1534515617.460.86767578125,-0.513427734375,0.031982421875,1.69372558594,0.762939453125,-0.0534057617188
1534515617.470.86962890625,-0.511474609375,0.029541015625,1.64794921875,0.411987304688,-0.06103515625
1534515617.470.868896484375,-0.51611328125,0.033203125,1.41143798828,0.480651855469,-0.0686645507812
1534515617.470.867919921875,-0.5185546875,0.03173828125,1.30462646484,0.480651855469,-0.144958496094
1534515617.470.868896484375,-0.518310546875,0.025390625,1.51824951172,0.495910644531,-0.198364257812
1534515617.470.8701171875,-0.516357421875,0.0234375,1.45721435547,0.328063964844,-0.0991821289062
1534515617.470.869873046875,-0.51806640625,0.029296875,1.57928466797,0.640869140625,-0.297546386719
1534515617.470.869873046875,-0.518798828125,0.03271484375,1.67083740234,0.701904296875,-0.350952148438
1534515617.470.868896484375,-0.51318359375,0.030029296875,1.67083740234,0.419616699219,-0.251770019531
1534515617.480.86669921875,-0.5146484375,0.028076171875,1.53350830078,0.587463378906,-0.556945800781
1534515617.480.868896484375,-0.5166015625,0.026611328125,1.44195556641,0.709533691406,-0.541687011719
1534515617.480.86865234375,-0.517822265625,0.030517578125,1.5869140625,0.457763671875,-0.526428222656
1534515617.480.867431640625,-0.515625,0.029052734375,1.51824951172,0.709533691406,-0.473022460938
1534515617.480.8671875,-0.514404296875,0.028564453125,1.42669677734,0.617980957031,-0.67138671875
1534515617.480.86767578125,-0.512451171875,0.028564453125,1.62506103516,0.709533691406,-0.656127929688
1534515617.480.868896484375,-0.514404296875,0.02783203125,1.83868408203,0.9765625,-0.740051269531
1534515617.490.872802734375,-0.515869140625,0.02587890625,1.77001953125,0.511169433594,-1.15203857422
1534515617.50.872802734375,-0.5126953125,0.0322265625,1.71661376953,0.625610351562,-0.946044921875
1534515617.50.870361328125,-0.51318359375,0.02880859375,1.45721435547,0.434875488281,-0.877380371094
1534515617.50.874267578125,-0.51708984375,0.033935546875,1.35803222656,0.701904296875,-1.19018554688
1534515617.50.871826171875,-0.51611328125,0.035888671875,1.41906738281,0.701904296875,-0.991821289062
1534515617.50.87109375,-0.515625,0.033203125,1.19781494141,0.373840332031,-1.02996826172
1534515617.50.87548828125,-0.51708984375,0.02880859375,1.12152099609,0.381469726562,-1.05285644531
1534515617.50.872802734375,-0.5146484375,0.0322265625,1.15203857422,0.259399414062,-1.19018554688
1534515617.510.874755859375,-0.517333984375,0.024169921875,1.56402587891,0.434875488281,-0.701904296875
1534515617.510.87841796875,-0.5166015625,0.03076171875,1.65557861328,0.381469726562,-0.640869140625
1534515617.520.87109375,-0.51611328125,0.03125,1.35040283203,0.137329101562,-0.694274902344
1534515617.520.869140625,-0.513427734375,0.02783203125,1.26647949219,0.129699707031,-0.480651855469
1534515617.520.869384765625,-0.514892578125,0.027587890625,1.61743164062,0.320434570312,-0.480651855469
1534515617.520.87060546875,-0.512939453125,0.02783203125,1.70135498047,0.747680664062,-0.457763671875
1534515617.530.87646484375,-0.510986328125,0.027099609375,1.73187255859,0.167846679688,-0.511169433594
1534515617.530.87451171875,-0.513916015625,0.03173828125,1.60980224609,0.30517578125,0.030517578125
1534515617.530.874755859375,-0.5126953125,0.033447265625,1.50299072266,0.373840332031,0.198364257812
1534515617.530.873779296875,-0.513427734375,0.0283203125,1.45721435547,0.717163085938,-0.0839233398438
1534515617.530.87890625,-0.517333984375,0.030517578125,1.51824951172,0.389099121094,0.167846679688
1534515617.540.871826171875,-0.51904296875,0.02783203125,1.48010253906,0.3662109375,0.30517578125
1534515617.540.8759765625,-0.514892578125,0.025146484375,1.63269042969,0.419616699219,0.144958496094
1534515617.540.874267578125,-0.514404296875,0.025390625,1.69372558594,0.404357910156,-0.0686645507812
1534515617.550.871826171875,-0.5166015625,0.024658203125,1.54113769531,0.724792480469,-0.0381469726562
1534515617.550.870361328125,-0.51708984375,0.029052734375,1.57928466797,0.503540039062,-0.30517578125
1534515617.550.86962890625,-0.515625,0.0283203125,1.60217285156,0.228881835938,-0.442504882812
1534515617.550.8740234375,-0.5166015625,0.026611328125,1.62506103516,0.663757324219,-0.190734863281
1534515617.550.868896484375,-0.516357421875,0.027587890625,1.45721435547,0.686645507812,-0.434875488281
1534515617.550.86865234375,-0.518310546875,0.027587890625,1.54876708984,0.885009765625,-0.457763671875
1534515617.550.8701171875,-0.518798828125,0.028076171875,1.63269042969,0.785827636719,-0.175476074219
1534515617.550.873779296875,-0.518310546875,0.027587890625,1.44958496094,0.656127929688,-0.419616699219
1534515617.560.875732421875,-0.517822265625,0.027099609375,1.57928466797,0.640869140625,-0.640869140625
1534515617.560.87451171875,-0.51953125,0.028076171875,1.60980224609,0.747680664062,-0.556945800781
1534515617.560.873779296875,-0.518310546875,0.02783203125,1.44195556641,0.770568847656,-0.450134277344
1534515617.560.867431640625,-0.515380859375,0.02734375,1.40380859375,0.999450683594,-0.663757324219
1534515617.560.864990234375,-0.516845703125,0.0244140625,1.45721435547,1.00708007812,-0.946044921875
1534515617.560.867431640625,-0.51806640625,0.02734375,1.54876708984,0.862121582031,-0.907897949219
1534515617.560.865966796875,-0.51806640625,0.02685546875,1.76239013672,0.885009765625,-0.885009765625
1534515617.560.8662109375,-0.51611328125,0.025146484375,1.60217285156,0.686645507812,-1.05285644531
1534515617.570.868896484375,-0.51708984375,0.03125,1.708984375,0.717163085938,-0.740051269531
1534515617.570.8701171875,-0.515625,0.02734375,1.69372558594,0.755310058594,-0.8544921875
1534515617.570.864990234375,-0.51611328125,0.030029296875,1.61743164062,0.473022460938,-0.984191894531
1534515617.570.868408203125,-0.514404296875,0.031494140625,1.57928466797,0.587463378906,-0.755310058594
1534515617.580.873291015625,-0.513916015625,0.026123046875,1.41143798828,0.656127929688,-0.625610351562
1534515617.580.872802734375,-0.5146484375,0.02392578125,1.44958496094,0.640869140625,-0.778198242188
1534515617.580.871826171875,-0.51611328125,0.032958984375,1.57165527344,0.534057617188,-0.839233398438
1534515617.580.87060546875,-0.517822265625,0.03466796875,1.41906738281,0.473022460938,-0.640869140625
1534515617.580.86865234375,-0.513671875,0.023193359375,1.44958496094,0.419616699219,-0.701904296875
1534515617.580.869873046875,-0.51513671875,0.025634765625,1.41906738281,0.625610351562,-0.724792480469
1534515617.580.8720703125,-0.51806640625,0.02392578125,1.33514404297,0.587463378906,-0.663757324219
1534515617.580.872314453125,-0.5185546875,0.021728515625,1.33514404297,0.228881835938,-0.602722167969
1534515617.580.871826171875,-0.513427734375,0.0283203125,1.35040283203,0.6103515625,-0.663757324219
1534515617.580.872314453125,-0.509521484375,0.03125,1.73187255859,0.656127929688,-0.503540039062
1534515617.590.86962890625,-0.510986328125,0.027099609375,1.64794921875,0.404357910156,-0.526428222656
1534515617.590.870361328125,-0.514892578125,0.02685546875,1.50299072266,0.350952148438,-0.495910644531
1534515617.60.872314453125,-0.5146484375,0.029296875,1.708984375,0.541687011719,-0.358581542969
1534515617.60.87109375,-0.512939453125,0.032470703125,1.70135498047,0.595092773438,-0.282287597656
1534515617.60.873779296875,-0.5146484375,0.028076171875,1.51824951172,0.656127929688,-0.18310546875
1534515617.60.87353515625,-0.515625,0.029296875,1.38092041016,0.663757324219,-0.259399414062
1534515617.60.871826171875,-0.52001953125,0.029052734375,1.47247314453,0.457763671875,-0.190734863281
1534515617.60.871337890625,-0.51904296875,0.023193359375,1.63269042969,0.114440917969,-0.213623046875
1534515617.60.87109375,-0.517333984375,0.0244140625,1.69372558594,0.114440917969,-0.274658203125
1534515617.60.87255859375,-0.516357421875,0.03271484375,1.66320800781,0.335693359375,-0.0839233398438
1534515617.60.873046875,-0.516845703125,0.0302734375,1.62506103516,0.312805175781,0.0381469726562
1534515617.60.870849609375,-0.520263671875,0.028076171875,1.70135498047,0.434875488281,-0.0152587890625
1534515617.610.871826171875,-0.5185546875,0.02490234375,1.80816650391,0.587463378906,-0.1220703125
1534515617.610.87353515625,-0.5146484375,0.02099609375,1.78527832031,0.534057617188,-0.1220703125
1534515617.610.869873046875,-0.513427734375,0.027587890625,1.87683105469,0.6103515625,-0.0839233398438
1534515617.610.87255859375,-0.513916015625,0.02783203125,1.65557861328,0.389099121094,-0.06103515625
1534515617.610.872802734375,-0.51611328125,0.029541015625,1.67083740234,0.442504882812,-0.00762939453125
1534515617.610.873046875,-0.517822265625,0.029541015625,1.70135498047,0.495910644531,-0.0991821289062
1534515617.610.875244140625,-0.51806640625,0.026123046875,1.74713134766,0.511169433594,-0.30517578125
1534515617.620.87158203125,-0.51318359375,0.02978515625,1.63269042969,0.3662109375,-0.396728515625
1534515617.620.874267578125,-0.511962890625,0.028076171875,1.80816650391,0.350952148438,-0.30517578125
1534515617.620.870849609375,-0.516357421875,0.030029296875,1.67846679688,0.465393066406,-0.3662109375
1534515617.620.874755859375,-0.51611328125,0.030029296875,1.44195556641,0.335693359375,-0.297546386719
1534515617.620.874267578125,-0.515380859375,0.032958984375,1.35803222656,0.411987304688,-0.465393066406
1534515617.630.872802734375,-0.51806640625,0.03271484375,1.67846679688,0.518798828125,-0.701904296875
1534515617.630.873046875,-0.514404296875,0.0283203125,1.70135498047,0.465393066406,-0.511169433594
1534515617.630.873046875,-0.511962890625,0.03076171875,1.57165527344,0.694274902344,-0.518798828125
1534515617.630.874267578125,-0.513671875,0.02685546875,1.38854980469,0.946044921875,-0.434875488281
1534515617.630.87109375,-0.509521484375,0.026611328125,1.47247314453,0.770568847656,-0.556945800781
1534515617.630.871826171875,-0.5126953125,0.03076171875,1.65557861328,0.572204589844,-0.686645507812
1534515617.630.87255859375,-0.512451171875,0.02783203125,1.45721435547,0.450134277344,-0.648498535156
1534515617.630.874267578125,-0.51318359375,0.02978515625,1.27410888672,0.473022460938,-0.6103515625
1534515617.640.873291015625,-0.516357421875,0.02880859375,1.5869140625,0.541687011719,-0.732421875
1534515617.640.87060546875,-0.516845703125,0.027587890625,1.77001953125,0.587463378906,-0.724792480469
1534515617.640.871826171875,-0.51318359375,0.026611328125,1.63269042969,0.633239746094,-0.823974609375
1534515617.650.876220703125,-0.514892578125,0.03076171875,1.57928466797,0.625610351562,-0.846862792969
1534515617.650.873779296875,-0.512451171875,0.025146484375,1.33514404297,0.404357910156,-0.946044921875
1534515617.650.872802734375,-0.51611328125,0.029052734375,1.31225585938,0.755310058594,-0.785827636719
1534515617.650.871337890625,-0.515380859375,0.02197265625,1.77764892578,0.54931640625,-0.633239746094
1534515617.660.87060546875,-0.515380859375,0.02783203125,1.64031982422,0.465393066406,-0.831604003906
1534515617.660.876953125,-0.516357421875,0.023193359375,1.71661376953,0.503540039062,-0.831604003906
1534515617.660.875,-0.5126953125,0.02587890625,1.66320800781,0.595092773438,-0.587463378906
1534515617.660.876708984375,-0.5126953125,0.02978515625,1.73187255859,0.518798828125,-0.419616699219
1534515617.670.876220703125,-0.515869140625,0.031494140625,1.52587890625,0.442504882812,-0.312805175781
1534515617.670.875732421875,-0.520263671875,0.028564453125,1.47247314453,0.404357910156,-0.42724609375
1534515617.670.8671875,-0.515380859375,0.028076171875,1.63269042969,0.633239746094,-0.480651855469
1534515617.670.873779296875,-0.517822265625,0.02880859375,1.55639648438,0.717163085938,-0.160217285156
1534515617.680.874755859375,-0.519775390625,0.030029296875,1.59454345703,0.564575195312,-0.251770019531
1534515617.680.86962890625,-0.516357421875,0.02587890625,1.20544433594,0.137329101562,-0.114440917969
1534515617.690.872802734375,-0.518310546875,0.027587890625,1.61743164062,0.663757324219,-0.106811523438
1534515617.690.871337890625,-0.510009765625,0.03173828125,1.48010253906,0.534057617188,0.0457763671875
1534515617.690.867431640625,-0.514892578125,0.029541015625,1.37329101562,-0.00762939453125,-0.144958496094
1534515617.690.868896484375,-0.51611328125,0.03076171875,1.64794921875,0.205993652344,-0.18310546875
1534515617.690.8681640625,-0.515625,0.034912109375,1.64794921875,0.328063964844,-0.137329101562
1534515617.690.866455078125,-0.514404296875,0.029052734375,1.78527832031,0.396728515625,-0.152587890625
1534515617.690.868408203125,-0.51513671875,0.0283203125,1.51824951172,0.289916992188,0.144958496094
1534515617.70.87109375,-0.511962890625,0.032470703125,1.41906738281,0.3662109375,-0.0991821289062
1534515617.70.873291015625,-0.51318359375,0.02734375,1.49536132812,0.175476074219,-0.373840332031
1534515617.70.87353515625,-0.515869140625,0.029541015625,1.26647949219,0.0152587890625,-0.152587890625
1534515617.710.873046875,-0.515869140625,0.03076171875,1.19781494141,0.00762939453125,0.175476074219
1534515617.710.872802734375,-0.518310546875,0.031982421875,1.21307373047,0.0534057617188,0.114440917969
1534515617.710.87109375,-0.515625,0.03173828125,1.13677978516,0.0762939453125,0.0381469726562
1534515617.710.870361328125,-0.5166015625,0.027099609375,1.33514404297,0.251770019531,0.175476074219
1534515617.710.869384765625,-0.517578125,0.0302734375,1.30462646484,0.152587890625,0.198364257812
1534515617.720.873046875,-0.5166015625,0.02685546875,1.23596191406,0.190734863281,0.190734863281
1534515617.720.872314453125,-0.51611328125,0.029296875,1.35040283203,-0.106811523438,0.18310546875
1534515617.720.873046875,-0.515869140625,0.033203125,1.25885009766,-0.0228881835938,0.267028808594
1534515617.720.874755859375,-0.515869140625,0.0283203125,1.13677978516,0.0839233398438,0.289916992188
1534515617.730.87548828125,-0.517822265625,0.028076171875,1.33514404297,0.0991821289062,0.312805175781
1534515617.730.86865234375,-0.511962890625,0.031005859375,1.31988525391,0.175476074219,0.228881835938
1534515617.730.87109375,-0.513427734375,0.03369140625,1.27410888672,0.144958496094,0.0
1534515617.730.872802734375,-0.512939453125,0.03125,1.66320800781,0.0228881835938,0.404357910156
1534515617.730.874267578125,-0.512939453125,0.027587890625,1.59454345703,0.213623046875,0.511169433594
1534515617.730.872314453125,-0.51806640625,0.03076171875,1.65557861328,0.244140625,0.251770019531
1534515617.740.87646484375,-0.518310546875,0.027099609375,1.67846679688,0.381469726562,0.1220703125
1534515617.740.876220703125,-0.5146484375,0.03125,1.54876708984,0.190734863281,0.205993652344
1534515617.740.873046875,-0.511962890625,0.03466796875,1.45721435547,0.0152587890625,0.167846679688
1534515617.740.86962890625,-0.515625,0.029541015625,1.80816650391,0.0762939453125,0.152587890625
1534515617.740.869384765625,-0.518310546875,0.023193359375,1.64794921875,0.480651855469,0.114440917969
1534515617.740.8720703125,-0.51513671875,0.025146484375,1.62506103516,0.480651855469,0.114440917969
1534515617.750.873046875,-0.51708984375,0.029541015625,1.49536132812,0.343322753906,0.0381469726562
1534515617.750.87109375,-0.517822265625,0.031005859375,1.708984375,0.389099121094,0.0839233398438
1534515617.750.8740234375,-0.514404296875,0.035400390625,1.5869140625,0.0991821289062,0.0
1534515617.750.873291015625,-0.51318359375,0.028564453125,1.52587890625,0.114440917969,-0.06103515625
1534515617.750.869140625,-0.5146484375,0.025634765625,1.46484375,0.167846679688,-0.0152587890625
1534515617.750.869140625,-0.513671875,0.02734375,1.63269042969,0.320434570312,-0.0991821289062
1534515617.750.87353515625,-0.513427734375,0.02734375,1.57165527344,0.625610351562,-0.18310546875
1534515617.750.872314453125,-0.511962890625,0.023681640625,1.40380859375,0.267028808594,-0.320434570312
1534515617.760.871337890625,-0.510498046875,0.022705078125,1.50299072266,0.0839233398438,-0.114440917969
1534515617.760.873046875,-0.510986328125,0.02587890625,1.40380859375,0.335693359375,0.0
1534515617.760.872314453125,-0.51171875,0.026611328125,1.56402587891,0.572204589844,-0.0686645507812
1534515617.760.87109375,-0.51318359375,0.029541015625,1.66320800781,0.389099121094,-0.259399414062
1534515617.760.870849609375,-0.513427734375,0.028076171875,1.60217285156,0.18310546875,-0.358581542969
1534515617.760.873291015625,-0.515380859375,0.02880859375,1.56402587891,0.30517578125,-0.358581542969
1534515617.760.87060546875,-0.517333984375,0.031494140625,1.44958496094,0.18310546875,-0.312805175781
1534515617.760.8720703125,-0.51806640625,0.0302734375,1.42669677734,0.251770019531,-0.312805175781
1534515617.770.874267578125,-0.516357421875,0.031005859375,1.63269042969,0.343322753906,-0.289916992188
1534515617.770.8720703125,-0.514892578125,0.031005859375,1.35803222656,0.411987304688,-0.518798828125
1534515617.770.872802734375,-0.5146484375,0.028564453125,1.52587890625,0.381469726562,-0.511169433594
1534515617.770.873291015625,-0.513916015625,0.0283203125,1.60217285156,0.503540039062,-0.648498535156
1534515617.770.87109375,-0.5146484375,0.02783203125,1.41143798828,0.442504882812,-0.518798828125
1534515617.770.872314453125,-0.514404296875,0.026123046875,1.41143798828,0.526428222656,-0.480651855469
1534515617.780.875732421875,-0.51416015625,0.02392578125,1.44958496094,0.717163085938,-0.6103515625
1534515617.780.87353515625,-0.51611328125,0.027587890625,1.65557861328,0.778198242188,-0.419616699219
1534515617.780.871826171875,-0.517822265625,0.02783203125,1.64031982422,0.556945800781,-0.358581542969
1534515617.780.872802734375,-0.516845703125,0.025390625,1.54113769531,0.259399414062,-0.335693359375
1534515617.780.872314453125,-0.519775390625,0.02685546875,1.52587890625,0.465393066406,-0.251770019531
1534515617.780.87158203125,-0.51953125,0.02783203125,1.32751464844,0.541687011719,-0.579833984375
1534515617.780.870361328125,-0.520751953125,0.02587890625,1.51062011719,0.518798828125,-0.762939453125
1534515617.780.87255859375,-0.517822265625,0.024169921875,1.70135498047,0.473022460938,-0.48828125
1534515617.780.869384765625,-0.51416015625,0.025634765625,1.67846679688,0.419616699219,-0.495910644531
1534515617.790.868896484375,-0.515625,0.028076171875,1.51824951172,0.373840332031,-0.411987304688
1534515617.790.875244140625,-0.51708984375,0.029296875,1.5869140625,0.480651855469,-0.587463378906
1534515617.790.87109375,-0.519287109375,0.0234375,1.5869140625,0.450134277344,-0.495910644531
1534515617.790.871826171875,-0.516357421875,0.02685546875,1.73950195312,0.617980957031,-0.205993652344
1534515617.790.868896484375,-0.5146484375,0.030029296875,1.87683105469,0.633239746094,-0.389099121094
1534515617.790.872314453125,-0.515625,0.025146484375,1.78527832031,0.679016113281,-0.526428222656
1534515617.80.873291015625,-0.513916015625,0.029541015625,1.84631347656,0.724792480469,-0.473022460938
1534515617.80.873779296875,-0.5146484375,0.028564453125,1.69372558594,0.801086425781,-0.3662109375
1534515617.80.872802734375,-0.516357421875,0.025390625,1.47247314453,0.686645507812,-0.381469726562
1534515617.80.87060546875,-0.515380859375,0.025634765625,1.57165527344,0.724792480469,-0.434875488281
1534515617.80.869873046875,-0.514892578125,0.023681640625,1.61743164062,0.640869140625,-0.465393066406
1534515617.80.869873046875,-0.514892578125,0.023681640625,1.67083740234,0.617980957031,-0.389099121094
1534515617.80.870849609375,-0.516845703125,0.024658203125,1.64794921875,0.640869140625,-0.396728515625
1534515617.80.872314453125,-0.520751953125,0.02099609375,1.67083740234,0.572204589844,-0.289916992188
1534515617.80.8720703125,-0.51708984375,0.01806640625,1.54113769531,0.640869140625,-0.312805175781
1534515617.80.870849609375,-0.514404296875,0.022216796875,1.60980224609,0.709533691406,-0.328063964844
1534515617.810.87109375,-0.51611328125,0.02685546875,1.69372558594,0.663757324219,-0.396728515625
1534515617.810.87158203125,-0.514892578125,0.028076171875,1.708984375,0.274658203125,-0.389099121094
1534515617.810.87158203125,-0.51416015625,0.022216796875,1.64031982422,0.244140625,-0.297546386719
1534515617.810.87109375,-0.51416015625,0.02294921875,1.60217285156,0.778198242188,-0.411987304688
1534515617.810.872314453125,-0.5126953125,0.02880859375,1.44195556641,0.79345703125,-0.617980957031
1534515617.810.87158203125,-0.512939453125,0.029541015625,1.23596191406,0.541687011719,-0.656127929688
1534515617.810.87060546875,-0.517578125,0.030029296875,1.26647949219,0.442504882812,-0.54931640625
1534515617.820.868896484375,-0.520751953125,0.0322265625,1.63269042969,0.6103515625,-0.495910644531
1534515617.820.8740234375,-0.515625,0.025146484375,1.45721435547,0.67138671875,-0.900268554688
1534515617.820.873779296875,-0.51513671875,0.027587890625,1.66320800781,0.274658203125,-0.862121582031
1534515617.830.874267578125,-0.518798828125,0.027587890625,1.54113769531,0.724792480469,-0.579833984375
1534515617.830.87109375,-0.515380859375,0.027099609375,1.63269042969,0.511169433594,-0.648498535156
1534515617.830.87158203125,-0.515869140625,0.026123046875,1.29699707031,0.67138671875,-0.869750976562
1534515617.840.87109375,-0.51806640625,0.02880859375,1.31988525391,0.679016113281,-1.02233886719
1534515617.840.8740234375,-0.51708984375,0.0302734375,1.54113769531,1.14440917969,-0.991821289062
1534515617.840.872314453125,-0.515380859375,0.029052734375,1.67083740234,0.755310058594,-0.801086425781
1534515617.840.873291015625,-0.513427734375,0.025146484375,1.64031982422,0.587463378906,-0.724792480469
1534515617.850.874755859375,-0.51220703125,0.028564453125,1.75476074219,0.526428222656,-1.00708007812
1534515617.850.872802734375,-0.516357421875,0.033203125,1.93023681641,0.770568847656,-0.999450683594
1534515617.850.872802734375,-0.515380859375,0.030029296875,1.31225585938,0.717163085938,-0.663757324219
1534515617.850.871337890625,-0.51611328125,0.033447265625,1.70135498047,0.907897949219,-0.862121582031
1534515617.860.872802734375,-0.51806640625,0.028564453125,1.64031982422,0.724792480469,-0.717163085938
1534515617.860.871337890625,-0.5205078125,0.029296875,1.65557861328,0.579833984375,-0.541687011719
1534515617.860.8681640625,-0.511962890625,0.029052734375,1.70135498047,0.419616699219,-0.640869140625
1534515617.860.871337890625,-0.515380859375,0.0244140625,1.708984375,0.534057617188,-0.770568847656
1534515617.860.870361328125,-0.513427734375,0.026611328125,1.68609619141,0.801086425781,-0.755310058594
1534515617.860.873291015625,-0.511474609375,0.0263671875,1.48010253906,0.694274902344,-0.244140625
1534515617.870.875732421875,-0.514404296875,0.026123046875,1.76239013672,0.541687011719,-0.144958496094
1534515617.880.874267578125,-0.51708984375,0.03369140625,1.59454345703,0.663757324219,-0.54931640625
1534515617.880.874267578125,-0.515869140625,0.033447265625,1.50299072266,0.785827636719,-0.3662109375
1534515617.880.87548828125,-0.5185546875,0.03271484375,1.48773193359,0.679016113281,-0.30517578125
1534515617.880.87451171875,-0.521484375,0.03076171875,1.60217285156,0.244140625,-0.442504882812
1534515617.880.875732421875,-0.519287109375,0.034423828125,1.72424316406,-0.00762939453125,-0.808715820312
1534515617.880.8759765625,-0.513671875,0.031005859375,1.54876708984,0.320434570312,-0.816345214844
1534515617.880.873046875,-0.5126953125,0.0283203125,1.67083740234,0.350952148438,-0.473022460938
1534515617.880.86962890625,-0.511474609375,0.02734375,1.69372558594,0.579833984375,-0.1220703125
1534515617.890.87158203125,-0.511962890625,0.029296875,1.60980224609,0.381469726562,-0.381469726562
1534515617.890.8671875,-0.51416015625,0.02734375,1.45721435547,0.495910644531,-0.404357910156
1534515617.890.870849609375,-0.51416015625,0.025634765625,1.52587890625,0.823974609375,-0.282287597656
1534515617.890.87060546875,-0.51171875,0.029052734375,1.63269042969,0.984191894531,-0.144958496094
1534515617.90.87158203125,-0.5107421875,0.028076171875,1.76239013672,0.846862792969,-0.198364257812
1534515617.90.876953125,-0.519287109375,0.03173828125,1.79290771484,0.579833984375,-0.167846679688
1534515617.90.87158203125,-0.519775390625,0.0341796875,1.75476074219,0.526428222656,-0.419616699219
1534515617.90.872802734375,-0.518798828125,0.031982421875,1.52587890625,0.160217285156,-0.564575195312
1534515617.90.873291015625,-0.517822265625,0.029052734375,1.44195556641,0.404357910156,-0.602722167969
1534515617.90.87158203125,-0.515380859375,0.0283203125,1.57928466797,0.434875488281,-0.320434570312
1534515617.90.87353515625,-0.511474609375,0.03125,1.46484375,0.564575195312,-0.358581542969
1534515617.90.872802734375,-0.51123046875,0.027099609375,1.37329101562,0.473022460938,-0.495910644531
1534515617.90.87353515625,-0.511962890625,0.033447265625,1.27410888672,0.42724609375,-0.282287597656
1534515617.910.873291015625,-0.5126953125,0.03076171875,1.59454345703,0.640869140625,-0.289916992188
1534515617.910.873046875,-0.5166015625,0.025146484375,1.53350830078,0.48828125,-0.328063964844
1534515617.910.871826171875,-0.51806640625,0.03173828125,1.53350830078,0.526428222656,-0.373840332031
1534515617.910.8701171875,-0.514892578125,0.03076171875,1.48773193359,0.709533691406,-0.404357910156
1534515617.910.8681640625,-0.51513671875,0.029052734375,1.5869140625,0.679016113281,-0.373840332031
1534515617.920.872314453125,-0.51953125,0.027099609375,1.53350830078,0.434875488281,-0.442504882812
1534515617.920.87109375,-0.515380859375,0.029052734375,1.76239013672,0.755310058594,-0.617980957031
1534515617.920.8701171875,-0.517578125,0.029052734375,1.54113769531,0.663757324219,-0.511169433594
1534515617.920.868896484375,-0.5205078125,0.029541015625,1.50299072266,0.30517578125,-0.213623046875
1534515617.920.8720703125,-0.52001953125,0.027587890625,1.59454345703,0.457763671875,-0.3662109375
1534515617.920.868408203125,-0.51904296875,0.025634765625,1.72424316406,0.541687011719,-0.579833984375
1534515617.930.869140625,-0.5146484375,0.030029296875,1.73187255859,0.48828125,-0.541687011719
1534515617.930.874267578125,-0.516845703125,0.025634765625,1.63269042969,0.808715820312,-0.396728515625
1534515617.930.87353515625,-0.51416015625,0.034423828125,1.48010253906,0.930786132812,-0.373840332031
1534515617.930.87353515625,-0.5126953125,0.03466796875,1.67846679688,0.625610351562,-0.282287597656
1534515617.930.878662109375,-0.514892578125,0.0322265625,1.76239013672,0.511169433594,-0.67138671875
1534515617.930.87255859375,-0.514404296875,0.023681640625,1.70135498047,0.686645507812,-0.740051269531
1534515617.930.871337890625,-0.51953125,0.0283203125,1.51824951172,0.526428222656,-0.511169433594
1534515617.940.869384765625,-0.5166015625,0.03125,1.62506103516,0.785827636719,-0.602722167969
1534515617.940.869384765625,-0.516357421875,0.02734375,1.54876708984,0.663757324219,-0.419616699219
1534515617.940.869384765625,-0.515869140625,0.03173828125,1.43432617188,0.404357910156,-0.541687011719
1534515617.940.868896484375,-0.514892578125,0.031005859375,1.68609619141,0.190734863281,-0.518798828125
1534515617.940.871826171875,-0.515625,0.032470703125,1.76239013672,0.358581542969,-0.617980957031
1534515617.940.87158203125,-0.51416015625,0.033935546875,1.48773193359,0.579833984375,-0.717163085938
1534515617.950.873779296875,-0.5146484375,0.02685546875,1.44958496094,0.846862792969,-0.762939453125
1534515617.950.877197265625,-0.52001953125,0.0283203125,1.49536132812,0.663757324219,-0.701904296875
1534515617.950.875244140625,-0.521484375,0.036865234375,1.48010253906,0.396728515625,-0.602722167969
1534515617.950.8720703125,-0.51904296875,0.03466796875,1.48773193359,0.564575195312,-0.373840332031
1534515617.950.87060546875,-0.5185546875,0.03125,1.67083740234,0.770568847656,-0.541687011719
1534515617.950.86572265625,-0.513916015625,0.027587890625,1.72424316406,0.839233398438,-0.587463378906
1534515617.950.8681640625,-0.514892578125,0.022216796875,1.67846679688,0.701904296875,-0.381469726562
1534515617.950.874267578125,-0.51318359375,0.02685546875,1.89208984375,0.656127929688,-0.434875488281
1534515617.960.874755859375,-0.512939453125,0.031494140625,1.65557861328,0.602722167969,-0.473022460938
1534515617.960.871826171875,-0.51220703125,0.02880859375,1.62506103516,0.473022460938,-0.465393066406
1534515617.960.870849609375,-0.51025390625,0.033203125,1.57165527344,0.701904296875,-0.450134277344
1534515617.960.868408203125,-0.510986328125,0.029052734375,1.68609619141,0.801086425781,-0.343322753906
1534515617.960.871826171875,-0.51708984375,0.03076171875,1.73187255859,0.907897949219,-0.343322753906
1534515617.960.873046875,-0.5185546875,0.030029296875,1.72424316406,0.617980957031,-0.556945800781
1534515617.960.872314453125,-0.516845703125,0.028564453125,1.41906738281,0.564575195312,-0.495910644531
1534515617.970.872802734375,-0.515869140625,0.0283203125,1.41906738281,0.373840332031,-0.534057617188
1534515617.970.87353515625,-0.515625,0.02685546875,1.64794921875,0.350952148438,-0.694274902344
1534515617.970.868896484375,-0.520263671875,0.025146484375,1.65557861328,0.602722167969,-0.572204589844
1534515617.970.86865234375,-0.517578125,0.024658203125,1.75476074219,0.808715820312,-0.595092773438
1534515617.970.86865234375,-0.51416015625,0.021728515625,1.56402587891,0.587463378906,-0.579833984375
1534515617.970.872802734375,-0.5126953125,0.02392578125,1.62506103516,0.648498535156,-0.396728515625
1534515617.970.874267578125,-0.517333984375,0.02587890625,1.52587890625,0.6103515625,-0.419616699219
1534515617.980.86962890625,-0.520263671875,0.03076171875,1.59454345703,0.350952148438,-0.30517578125
1534515617.980.870849609375,-0.515625,0.031005859375,1.60980224609,0.465393066406,-0.473022460938
1534515617.980.873291015625,-0.518310546875,0.030517578125,1.63269042969,0.556945800781,-0.442504882812
1534515617.980.873291015625,-0.514404296875,0.029296875,1.44958496094,0.823974609375,-0.274658203125
1534515617.980.86962890625,-0.515625,0.02978515625,1.51062011719,0.717163085938,-0.30517578125
1534515617.980.869384765625,-0.51708984375,0.03076171875,1.57928466797,0.495910644531,-0.3662109375
1534515617.980.872314453125,-0.514892578125,0.0283203125,1.55639648438,0.503540039062,-0.373840332031
1534515617.990.869873046875,-0.515380859375,0.02880859375,1.69372558594,0.686645507812,-0.625610351562
1534515617.990.87548828125,-0.517822265625,0.024658203125,1.8310546875,0.389099121094,-0.381469726562
1534515617.990.8740234375,-0.515380859375,0.02734375,1.70135498047,0.343322753906,-0.3662109375
1534515617.990.869140625,-0.511962890625,0.03076171875,1.63269042969,0.556945800781,-0.404357910156
1534515617.990.86767578125,-0.513916015625,0.030517578125,1.51824951172,0.6103515625,-0.343322753906
1534515618.00.870361328125,-0.5146484375,0.029541015625,1.41906738281,0.358581542969,-0.335693359375
1534515618.00.871337890625,-0.518798828125,0.021728515625,1.61743164062,0.495910644531,-0.480651855469
1534515618.00.873046875,-0.518310546875,0.0244140625,1.54113769531,0.0839233398438,-0.350952148438
1534515618.00.87451171875,-0.51611328125,0.02490234375,1.51062011719,0.541687011719,-0.335693359375
1534515618.010.8740234375,-0.514404296875,0.02685546875,0.877380371094,0.946044921875,-0.3662109375
1534515618.020.88134765625,-0.512939453125,0.03125,0.823974609375,2.685546875,0.091552734375
1534515618.020.878173828125,-0.510009765625,0.0380859375,0.0991821289062,2.81524658203,0.480651855469
1534515618.020.856201171875,-0.5185546875,0.02685546875,1.31988525391,0.30517578125,-0.297546386719
1534515618.020.843017578125,-0.5283203125,0.015380859375,2.8076171875,-2.23541259766,-0.595092773438
1534515618.020.871337890625,-0.5185546875,0.02587890625,2.10571289062,-1.73950195312,-0.129699707031
1534515618.020.892578125,-0.504638671875,0.037353515625,0.602722167969,0.473022460938,0.0762939453125
1534515618.020.880615234375,-0.51025390625,0.02978515625,0.3662109375,1.24359130859,-0.0457763671875
