CSV format: Accelerometer x value, acclerometer y value, accelerometer z value, gyroscope x value, gyroscope y value, gyroscope z value
Sample frequency: 100Hz
1534593315.110.936767578125,-0.390869140625,-0.081787109375,1.43432617188,0.633239746094,-0.335693359375
1534593315.120.94091796875,-0.3916015625,-0.085693359375,1.44195556641,0.373840332031,-0.389099121094
1534593315.120.93896484375,-0.3916015625,-0.087158203125,1.48010253906,0.42724609375,-0.541687011719
1534593315.120.938232421875,-0.39501953125,-0.08544921875,1.35040283203,0.236511230469,-0.465393066406
1534593315.120.94384765625,-0.392333984375,-0.084228515625,1.38092041016,0.54931640625,-0.587463378906
1534593315.130.94189453125,-0.39208984375,-0.0771484375,1.59454345703,0.67138671875,-0.694274902344
1534593315.130.939453125,-0.394287109375,-0.08203125,1.28936767578,0.389099121094,-0.808715820312
1534593315.130.939453125,-0.3955078125,-0.078125,1.45721435547,0.328063964844,-0.633239746094
1534593315.130.935791015625,-0.39404296875,-0.08203125,1.41906738281,0.564575195312,-0.587463378906
1534593315.140.93896484375,-0.394287109375,-0.08544921875,1.55639648438,0.656127929688,-0.495910644531
1534593315.140.93994140625,-0.39501953125,-0.08349609375,1.66320800781,0.709533691406,-0.465393066406
1534593315.140.9375,-0.3916015625,-0.084228515625,1.29699707031,0.434875488281,-0.770568847656
1534593315.140.9423828125,-0.392822265625,-0.07958984375,1.31225585938,0.694274902344,-0.495910644531
1534593315.150.94140625,-0.396240234375,-0.0849609375,1.53350830078,0.442504882812,-0.465393066406
1534593315.150.94140625,-0.392822265625,-0.08447265625,1.44195556641,0.54931640625,-0.602722167969
1534593315.150.938232421875,-0.393310546875,-0.082763671875,1.67083740234,0.686645507812,0.0457763671875
1534593315.150.937255859375,-0.3916015625,-0.091064453125,1.64794921875,0.54931640625,-0.312805175781
1534593315.160.937744140625,-0.395751953125,-0.091552734375,1.69372558594,0.617980957031,-0.274658203125
1534593315.160.942626953125,-0.39208984375,-0.085205078125,1.48010253906,0.656127929688,-0.205993652344
1534593315.160.93798828125,-0.393798828125,-0.084716796875,1.43432617188,0.587463378906,-0.129699707031
1534593315.170.93505859375,-0.3916015625,-0.08447265625,1.28936767578,0.381469726562,-0.114440917969
1534593315.170.938720703125,-0.392333984375,-0.075927734375,1.48010253906,0.640869140625,-0.251770019531
1534593315.170.9375,-0.395263671875,-0.081298828125,1.39617919922,0.6103515625,-0.236511230469
1534593315.170.939453125,-0.395751953125,-0.086181640625,1.23596191406,0.556945800781,-0.0534057617188
1534593315.170.9345703125,-0.396240234375,-0.0859375,1.35803222656,0.686645507812,-0.137329101562
1534593315.170.936279296875,-0.394775390625,-0.08544921875,1.53350830078,0.648498535156,-0.48828125
1534593315.170.941162109375,-0.392333984375,-0.083251953125,1.61743164062,0.617980957031,-0.419616699219
1534593315.170.938232421875,-0.3916015625,-0.084716796875,1.48773193359,0.404357910156,-0.335693359375
1534593315.180.9365234375,-0.39208984375,-0.08447265625,1.47247314453,0.450134277344,-0.419616699219
1534593315.180.93896484375,-0.3916015625,-0.08984375,1.48773193359,0.579833984375,-0.396728515625
1534593315.180.94091796875,-0.391845703125,-0.089599609375,1.5869140625,0.602722167969,-0.511169433594
1534593315.180.941650390625,-0.39111328125,-0.083740234375,1.47247314453,0.564575195312,-0.442504882812
1534593315.180.939208984375,-0.39404296875,-0.08203125,1.56402587891,0.396728515625,-0.198364257812
1534593315.180.93896484375,-0.39697265625,-0.08544921875,1.68609619141,0.3662109375,-0.259399414062
1534593315.180.937744140625,-0.3955078125,-0.086669921875,1.75476074219,0.18310546875,-0.343322753906
1534593315.180.939208984375,-0.391845703125,-0.08154296875,1.46484375,0.228881835938,-0.480651855469
1534593315.180.94287109375,-0.395263671875,-0.084228515625,1.16729736328,0.48828125,-0.564575195312
1534593315.190.9404296875,-0.397216796875,-0.083740234375,1.48010253906,0.633239746094,-0.556945800781
1534593315.190.9384765625,-0.39404296875,-0.082275390625,1.55639648438,0.328063964844,-0.518798828125
1534593315.190.937744140625,-0.390380859375,-0.084716796875,1.65557861328,0.541687011719,-0.419616699219
1534593315.190.936279296875,-0.388916015625,-0.083984375,1.32751464844,0.48828125,-0.503540039062
1534593315.190.9365234375,-0.390625,-0.088134765625,1.35803222656,0.541687011719,-0.442504882812
1534593315.20.935791015625,-0.390625,-0.08447265625,1.38092041016,0.54931640625,-0.526428222656
1534593315.20.93994140625,-0.39404296875,-0.0732421875,1.54113769531,0.381469726562,-0.411987304688
1534593315.210.940185546875,-0.394775390625,-0.076904296875,1.47247314453,0.297546386719,-0.297546386719
1534593315.210.9384765625,-0.395751953125,-0.08984375,1.54876708984,0.656127929688,-0.396728515625
1534593315.210.942138671875,-0.39697265625,-0.090087890625,1.54113769531,0.801086425781,-0.343322753906
1534593315.210.94091796875,-0.39599609375,-0.085693359375,1.47247314453,0.831604003906,-0.465393066406
1534593315.210.94091796875,-0.3974609375,-0.083984375,1.46484375,0.694274902344,-0.518798828125
1534593315.210.939697265625,-0.395751953125,-0.084716796875,1.54113769531,0.442504882812,-0.328063964844
1534593315.220.9375,-0.39404296875,-0.081298828125,1.43432617188,0.801086425781,-0.358581542969
1534593315.220.935546875,-0.392333984375,-0.095703125,1.39617919922,0.709533691406,-0.190734863281
1534593315.220.938720703125,-0.392578125,-0.082275390625,1.57928466797,0.564575195312,-0.381469726562
1534593315.220.939208984375,-0.395263671875,-0.080810546875,1.5869140625,0.564575195312,-0.389099121094
1534593315.220.9365234375,-0.394775390625,-0.082763671875,1.55639648438,0.381469726562,-0.67138671875
1534593315.220.93701171875,-0.392578125,-0.0810546875,1.55639648438,0.396728515625,-0.48828125
1534593315.230.9384765625,-0.393798828125,-0.082763671875,1.73187255859,0.434875488281,-0.244140625
1534593315.230.94140625,-0.392333984375,-0.083740234375,1.55639648438,0.686645507812,-0.48828125
1534593315.240.939697265625,-0.390869140625,-0.083251953125,1.46484375,0.602722167969,-0.587463378906
1534593315.240.941650390625,-0.391845703125,-0.08056640625,1.45721435547,0.67138671875,-0.457763671875
1534593315.240.941162109375,-0.3955078125,-0.0810546875,1.75476074219,0.503540039062,-0.457763671875
1534593315.240.939697265625,-0.3984375,-0.082763671875,1.5869140625,0.442504882812,-0.518798828125
1534593315.240.941650390625,-0.392822265625,-0.080322265625,1.44958496094,0.434875488281,-0.495910644531
1534593315.250.939697265625,-0.396484375,-0.0888671875,1.55639648438,0.633239746094,-0.587463378906
1534593315.250.9384765625,-0.396728515625,-0.07666015625,1.54876708984,0.572204589844,-0.572204589844
1534593315.250.93994140625,-0.3955078125,-0.077392578125,1.46484375,0.175476074219,-0.396728515625
1534593315.250.939453125,-0.395751953125,-0.087890625,1.28173828125,0.411987304688,-0.419616699219
1534593315.250.94091796875,-0.39208984375,-0.085693359375,1.46484375,0.518798828125,-0.373840332031
1534593315.260.9384765625,-0.390869140625,-0.0849609375,1.70135498047,0.572204589844,-0.564575195312
1534593315.260.938720703125,-0.389892578125,-0.0859375,1.43432617188,0.465393066406,-0.42724609375
1534593315.260.939697265625,-0.392333984375,-0.083251953125,1.49536132812,0.373840332031,-0.480651855469
1534593315.260.941650390625,-0.39404296875,-0.08203125,1.41143798828,0.259399414062,-0.465393066406
1534593315.260.939453125,-0.394287109375,-0.08447265625,1.48773193359,0.572204589844,-0.312805175781
1534593315.260.9384765625,-0.391357421875,-0.08056640625,1.51062011719,0.54931640625,-0.297546386719
1534593315.260.939697265625,-0.3916015625,-0.08203125,1.3427734375,0.602722167969,-0.373840332031
1534593315.270.940185546875,-0.390625,-0.0810546875,1.57165527344,0.587463378906,-0.518798828125
1534593315.270.940185546875,-0.3876953125,-0.08447265625,1.52587890625,0.495910644531,-0.572204589844
1534593315.270.94140625,-0.3896484375,-0.08349609375,1.35803222656,0.556945800781,-0.465393066406
1534593315.270.935791015625,-0.392578125,-0.0830078125,1.43432617188,0.396728515625,-0.404357910156
1534593315.270.93408203125,-0.394287109375,-0.08251953125,1.53350830078,0.343322753906,-0.381469726562
1534593315.270.938720703125,-0.390869140625,-0.0810546875,1.48010253906,0.30517578125,-0.572204589844
1534593315.270.937744140625,-0.395263671875,-0.083740234375,1.45721435547,0.457763671875,-0.640869140625
1534593315.270.93994140625,-0.395263671875,-0.083740234375,1.51824951172,0.48828125,-0.473022460938
1534593315.270.940185546875,-0.39306640625,-0.084228515625,1.44958496094,0.343322753906,-0.274658203125
1534593315.280.938232421875,-0.395751953125,-0.085693359375,1.48773193359,0.473022460938,-0.358581542969
1534593315.280.94091796875,-0.3955078125,-0.083740234375,1.43432617188,0.541687011719,-0.450134277344
1534593315.280.942626953125,-0.393310546875,-0.080078125,1.49536132812,0.67138671875,-0.404357910156
1534593315.280.939453125,-0.396484375,-0.08349609375,1.55639648438,0.587463378906,-0.244140625
1534593315.280.935791015625,-0.393798828125,-0.08154296875,1.43432617188,0.473022460938,-0.30517578125
1534593315.280.93701171875,-0.389892578125,-0.080078125,1.63269042969,0.312805175781,-0.42724609375
1534593315.280.938720703125,-0.390625,-0.0859375,1.56402587891,0.244140625,-0.434875488281
1534593315.280.938720703125,-0.3935546875,-0.09130859375,1.49536132812,0.625610351562,-0.274658203125
1534593315.290.9404296875,-0.392822265625,-0.086669921875,1.53350830078,0.6103515625,-0.152587890625
1534593315.290.940673828125,-0.390869140625,-0.080078125,1.60980224609,0.495910644531,-0.0534057617188
1534593315.290.937744140625,-0.394287109375,-0.08056640625,1.72424316406,0.503540039062,-0.251770019531
1534593315.290.9365234375,-0.39599609375,-0.085205078125,1.68609619141,0.717163085938,-0.54931640625
1534593315.290.93896484375,-0.396240234375,-0.087158203125,1.63269042969,0.465393066406,-0.656127929688
1534593315.290.93994140625,-0.39404296875,-0.087158203125,1.31988525391,0.42724609375,-0.54931640625
1534593315.290.9384765625,-0.39306640625,-0.08984375,1.28173828125,0.495910644531,-0.381469726562
1534593315.290.941650390625,-0.392822265625,-0.091552734375,1.28173828125,0.259399414062,-0.434875488281
1534593315.290.9404296875,-0.391357421875,-0.08984375,1.37329101562,0.434875488281,-0.450134277344
1534593315.30.938232421875,-0.393310546875,-0.084228515625,1.28936767578,0.579833984375,-0.450134277344
1534593315.30.940673828125,-0.39599609375,-0.083740234375,1.31225585938,0.617980957031,-0.473022460938
1534593315.30.9423828125,-0.3955078125,-0.0859375,1.44958496094,0.633239746094,-0.450134277344
1534593315.30.94091796875,-0.39404296875,-0.0859375,1.40380859375,0.48828125,-0.465393066406
1534593315.30.94140625,-0.39453125,-0.08154296875,1.54113769531,0.30517578125,-0.595092773438
1534593315.30.941162109375,-0.390380859375,-0.078369140625,1.66320800781,0.541687011719,-0.419616699219
1534593315.30.939208984375,-0.387451171875,-0.083984375,1.70135498047,0.67138671875,-0.358581542969
1534593315.30.940673828125,-0.390380859375,-0.083984375,1.44195556641,0.595092773438,-0.495910644531
1534593315.30.9423828125,-0.39306640625,-0.08251953125,1.38092041016,0.587463378906,-0.572204589844
1534593315.310.942138671875,-0.39306640625,-0.084228515625,1.55639648438,0.556945800781,-0.457763671875
1534593315.310.939697265625,-0.388916015625,-0.082763671875,1.55639648438,0.640869140625,-0.442504882812
1534593315.310.93896484375,-0.39208984375,-0.081298828125,1.63269042969,0.747680664062,-0.389099121094
1534593315.310.938232421875,-0.390869140625,-0.083740234375,1.78527832031,0.839233398438,-0.3662109375
1534593315.310.93994140625,-0.3916015625,-0.0849609375,1.85394287109,0.648498535156,-0.419616699219
1534593315.310.941650390625,-0.39404296875,-0.0810546875,1.64031982422,0.503540039062,-0.381469726562
1534593315.310.93896484375,-0.389404296875,-0.08251953125,1.59454345703,0.251770019531,-0.335693359375
1534593315.310.94091796875,-0.390869140625,-0.080322265625,1.64031982422,0.18310546875,-0.228881835938
1534593315.320.94091796875,-0.392333984375,-0.07861328125,1.65557861328,0.343322753906,-0.282287597656
1534593315.320.940185546875,-0.39501953125,-0.083740234375,1.68609619141,0.648498535156,-0.434875488281
1534593315.320.939697265625,-0.39501953125,-0.08740234375,1.43432617188,0.663757324219,-0.389099121094
1534593315.320.937255859375,-0.392333984375,-0.085693359375,1.42669677734,0.816345214844,-0.358581542969
1534593315.320.935791015625,-0.392333984375,-0.08447265625,1.60980224609,0.579833984375,-0.381469726562
1534593315.320.9375,-0.394287109375,-0.08203125,1.50299072266,0.457763671875,-0.442504882812
1534593315.320.93994140625,-0.391845703125,-0.082275390625,1.35040283203,0.518798828125,-0.419616699219
1534593315.320.9384765625,-0.389892578125,-0.0849609375,1.54876708984,0.541687011719,-0.350952148438
1534593315.320.938232421875,-0.395751953125,-0.085205078125,1.64031982422,0.480651855469,-0.18310546875
1534593315.330.9404296875,-0.3916015625,-0.084228515625,1.28936767578,0.3662109375,-0.312805175781
1534593315.330.94091796875,-0.39453125,-0.08203125,1.39617919922,0.633239746094,-0.221252441406
1534593315.330.939208984375,-0.395751953125,-0.077880859375,1.53350830078,0.526428222656,-0.297546386719
1534593315.330.935791015625,-0.394287109375,-0.077392578125,1.46484375,0.541687011719,-0.274658203125
1534593315.330.939208984375,-0.397216796875,-0.0791015625,1.89208984375,0.511169433594,-0.244140625
1534593315.330.943115234375,-0.394775390625,-0.080078125,1.708984375,0.541687011719,-0.282287597656
1534593315.330.940185546875,-0.39208984375,-0.0810546875,1.44195556641,0.648498535156,-0.381469726562
1534593315.330.93701171875,-0.394775390625,-0.083740234375,1.53350830078,0.648498535156,-0.3662109375
1534593315.330.937744140625,-0.39453125,-0.089599609375,1.69372558594,0.595092773438,-0.320434570312
1534593315.340.9365234375,-0.39501953125,-0.087646484375,1.55639648438,0.579833984375,-0.389099121094
1534593315.340.936767578125,-0.3974609375,-0.07958984375,1.56402587891,0.79345703125,-0.350952148438
1534593315.340.937255859375,-0.39892578125,-0.084716796875,1.71661376953,0.6103515625,-0.465393066406
1534593315.340.93896484375,-0.3974609375,-0.088134765625,1.51062011719,0.633239746094,-0.503540039062
1534593315.340.940185546875,-0.392333984375,-0.08544921875,1.31225585938,0.640869140625,-0.404357910156
1534593315.340.935791015625,-0.396240234375,-0.086669921875,1.29699707031,0.518798828125,-0.419616699219
1534593315.340.9404296875,-0.39697265625,-0.082275390625,1.46484375,0.473022460938,-0.495910644531
1534593315.340.942138671875,-0.396484375,-0.08642578125,1.71661376953,0.495910644531,-0.541687011719
1534593315.350.9384765625,-0.39501953125,-0.087646484375,1.54113769531,0.450134277344,-0.320434570312
1534593315.350.93896484375,-0.3955078125,-0.089111328125,1.65557861328,0.541687011719,-0.495910644531
1534593315.350.939208984375,-0.39306640625,-0.089111328125,1.70135498047,0.564575195312,-0.579833984375
1534593315.350.939453125,-0.39013671875,-0.08740234375,1.35040283203,0.663757324219,-0.54931640625
1534593315.350.940673828125,-0.393798828125,-0.0830078125,1.21307373047,0.511169433594,-0.473022460938
1534593315.350.942138671875,-0.396484375,-0.083251953125,1.48773193359,0.473022460938,-0.419616699219
1534593315.350.94482421875,-0.3955078125,-0.07958984375,1.8310546875,0.312805175781,-0.282287597656
1534593315.350.94189453125,-0.393798828125,-0.08154296875,1.50299072266,0.335693359375,-0.312805175781
1534593315.350.942138671875,-0.39501953125,-0.08447265625,1.36566162109,0.434875488281,-0.373840332031
1534593315.360.94287109375,-0.39501953125,-0.07861328125,1.28173828125,0.54931640625,-0.396728515625
1534593315.360.939697265625,-0.393798828125,-0.0810546875,1.35040283203,0.48828125,-0.373840332031
1534593315.360.94140625,-0.39111328125,-0.087890625,1.53350830078,0.373840332031,-0.526428222656
1534593315.360.941650390625,-0.39208984375,-0.083984375,1.64794921875,0.495910644531,-0.602722167969
1534593315.370.94189453125,-0.3896484375,-0.085693359375,1.50299072266,0.747680664062,-0.48828125
1534593315.370.940185546875,-0.39404296875,-0.08154296875,1.64794921875,0.450134277344,-0.663757324219
1534593315.370.940673828125,-0.390380859375,-0.08349609375,1.62506103516,0.579833984375,-0.42724609375
1534593315.380.94140625,-0.392822265625,-0.08544921875,1.64794921875,0.617980957031,-0.434875488281
1534593315.380.9404296875,-0.392333984375,-0.08740234375,1.46484375,0.411987304688,-0.42724609375
1534593315.380.938720703125,-0.39306640625,-0.086181640625,1.46484375,0.396728515625,-0.511169433594
1534593315.380.9375,-0.394287109375,-0.080810546875,1.47247314453,0.503540039062,-0.350952148438
1534593315.380.93701171875,-0.392333984375,-0.087158203125,1.20544433594,0.480651855469,-0.350952148438
1534593315.390.94091796875,-0.39208984375,-0.08740234375,1.49536132812,0.724792480469,-0.442504882812
1534593315.390.940673828125,-0.39208984375,-0.08837890625,1.8310546875,0.3662109375,-0.465393066406
1534593315.390.9384765625,-0.39208984375,-0.08447265625,1.82342529297,0.404357910156,-0.358581542969
1534593315.390.93798828125,-0.391357421875,-0.08447265625,1.51824951172,0.518798828125,-0.274658203125
1534593315.390.939208984375,-0.389404296875,-0.08349609375,1.72424316406,0.396728515625,-0.373840332031
1534593315.40.939697265625,-0.39013671875,-0.081787109375,1.73950195312,0.717163085938,-0.556945800781
1534593315.40.9404296875,-0.392333984375,-0.088623046875,1.25885009766,0.541687011719,-0.42724609375
1534593315.40.943115234375,-0.393798828125,-0.084716796875,1.38092041016,0.3662109375,-0.30517578125
1534593315.40.9365234375,-0.393310546875,-0.087646484375,1.63269042969,0.503540039062,-0.465393066406
1534593315.40.9404296875,-0.392333984375,-0.086669921875,1.63269042969,0.42724609375,-0.389099121094
1534593315.40.940673828125,-0.392578125,-0.088134765625,1.42669677734,0.541687011719,-0.518798828125
1534593315.410.93896484375,-0.390380859375,-0.088134765625,1.43432617188,0.640869140625,-0.503540039062
1534593315.410.940185546875,-0.3916015625,-0.087890625,1.45721435547,0.633239746094,-0.442504882812
1534593315.410.9375,-0.392822265625,-0.079833984375,1.45721435547,0.457763671875,-0.373840332031
1534593315.410.93896484375,-0.3916015625,-0.08349609375,1.61743164062,0.419616699219,-0.350952148438
1534593315.420.938232421875,-0.3955078125,-0.089111328125,1.52587890625,0.411987304688,-0.320434570312
1534593315.420.9375,-0.392333984375,-0.08935546875,1.56402587891,0.320434570312,-0.389099121094
1534593315.420.939697265625,-0.396728515625,-0.089599609375,1.57165527344,0.755310058594,-0.1220703125
1534593315.420.939208984375,-0.390625,-0.084716796875,1.28936767578,0.625610351562,-0.312805175781
1534593315.420.9365234375,-0.39306640625,-0.083740234375,1.35803222656,0.503540039062,-0.312805175781
1534593315.430.937255859375,-0.396240234375,-0.08447265625,1.51824951172,0.419616699219,-0.160217285156
1534593315.430.93994140625,-0.393798828125,-0.083984375,1.73950195312,0.564575195312,-0.137329101562
1534593315.430.939453125,-0.393310546875,-0.085205078125,1.88446044922,0.8544921875,-0.434875488281
1534593315.430.94189453125,-0.391845703125,-0.093994140625,1.61743164062,0.770568847656,-0.373840332031
1534593315.430.94140625,-0.389892578125,-0.091064453125,1.37329101562,0.572204589844,-0.358581542969
1534593315.430.9404296875,-0.390869140625,-0.083251953125,1.27410888672,0.770568847656,-0.434875488281
1534593315.430.938720703125,-0.390869140625,-0.078125,1.12915039062,0.79345703125,-0.289916992188
1534593315.430.936279296875,-0.390380859375,-0.078857421875,1.18255615234,0.511169433594,-0.160217285156
1534593315.430.93701171875,-0.392578125,-0.083740234375,1.35040283203,0.343322753906,-0.175476074219
1534593315.430.93896484375,-0.393798828125,-0.09130859375,1.39617919922,0.465393066406,-0.312805175781
1534593315.440.93798828125,-0.3935546875,-0.09130859375,1.46484375,0.701904296875,-0.259399414062
1534593315.440.938232421875,-0.394287109375,-0.0869140625,1.38092041016,0.572204589844,-0.236511230469
1534593315.440.940185546875,-0.39404296875,-0.087646484375,1.48773193359,0.663757324219,-0.42724609375
1534593315.440.940185546875,-0.39404296875,-0.087646484375,1.54113769531,0.679016113281,-0.518798828125
1534593315.440.93896484375,-0.393310546875,-0.081787109375,1.46484375,0.465393066406,-0.411987304688
1534593315.440.9404296875,-0.395751953125,-0.08447265625,1.41906738281,0.602722167969,-0.404357910156
1534593315.440.937255859375,-0.392822265625,-0.08984375,1.60980224609,0.633239746094,-0.572204589844
1534593315.450.9375,-0.3935546875,-0.08984375,1.57928466797,0.503540039062,-0.495910644531
1534593315.450.936767578125,-0.39208984375,-0.0830078125,1.27410888672,0.328063964844,-0.297546386719
1534593315.450.9365234375,-0.390625,-0.083740234375,1.51824951172,0.480651855469,-0.282287597656
1534593315.450.940673828125,-0.392822265625,-0.08251953125,1.41906738281,0.801086425781,-0.511169433594
1534593315.450.937744140625,-0.393310546875,-0.08642578125,1.44958496094,0.740051269531,-0.534057617188
1534593315.450.936767578125,-0.394287109375,-0.08837890625,1.51824951172,0.556945800781,-0.617980957031
1534593315.460.9365234375,-0.396484375,-0.089111328125,1.59454345703,0.54931640625,-0.625610351562
1534593315.460.93994140625,-0.398681640625,-0.093017578125,1.53350830078,0.640869140625,-0.54931640625
1534593315.460.940673828125,-0.398681640625,-0.083740234375,1.39617919922,0.724792480469,-0.442504882812
1534593315.460.9384765625,-0.39697265625,-0.073974609375,1.35040283203,0.877380371094,-0.434875488281
1534593315.460.939697265625,-0.393798828125,-0.081298828125,1.35040283203,0.762939453125,-0.495910644531
1534593315.460.941162109375,-0.391357421875,-0.083740234375,1.3427734375,0.595092773438,-0.534057617188
1534593315.460.941650390625,-0.391845703125,-0.082275390625,1.50299072266,0.526428222656,-0.656127929688
1534593315.460.938720703125,-0.396484375,-0.085693359375,1.3427734375,0.511169433594,-0.694274902344
1534593315.460.93994140625,-0.395751953125,-0.087646484375,1.21307373047,0.511169433594,-0.526428222656
1534593315.460.94091796875,-0.392822265625,-0.087158203125,1.46484375,0.595092773438,-0.274658203125
1534593315.470.938232421875,-0.39404296875,-0.0859375,1.48773193359,0.442504882812,-0.282287597656
1534593315.470.9375,-0.393310546875,-0.08740234375,1.55639648438,0.434875488281,-0.495910644531
1534593315.470.9384765625,-0.39306640625,-0.086669921875,1.72424316406,0.595092773438,-0.480651855469
1534593315.470.9375,-0.39208984375,-0.08740234375,1.78527832031,0.755310058594,-0.419616699219
1534593315.470.93798828125,-0.390380859375,-0.08740234375,1.55639648438,0.526428222656,-0.335693359375
1534593315.470.943359375,-0.389892578125,-0.083251953125,1.31225585938,0.473022460938,-0.282287597656
1534593315.470.942626953125,-0.392578125,-0.081787109375,1.33514404297,0.679016113281,-0.328063964844
1534593315.470.939697265625,-0.3935546875,-0.081787109375,1.60217285156,0.801086425781,-0.419616699219
1534593315.470.938232421875,-0.392822265625,-0.0791015625,1.57165527344,0.946044921875,-0.450134277344
1534593315.470.937255859375,-0.39208984375,-0.07958984375,1.65557861328,0.923156738281,-0.495910644531
1534593315.470.937744140625,-0.390380859375,-0.07958984375,1.67083740234,0.54931640625,-0.404357910156
1534593315.480.93701171875,-0.389404296875,-0.0751953125,1.54876708984,0.495910644531,-0.221252441406
1534593315.480.9375,-0.387451171875,-0.073974609375,1.60980224609,0.526428222656,-0.144958496094
1534593315.480.941162109375,-0.38720703125,-0.081787109375,1.63269042969,0.534057617188,-0.297546386719
1534593315.480.941162109375,-0.38720703125,-0.081787109375,1.56402587891,0.541687011719,-0.381469726562
1534593315.480.943115234375,-0.38916015625,-0.08642578125,1.42669677734,0.564575195312,-0.404357910156
1534593315.480.943603515625,-0.39013671875,-0.08251953125,1.43432617188,0.595092773438,-0.442504882812
1534593315.480.94189453125,-0.391845703125,-0.083251953125,1.59454345703,0.42724609375,-0.419616699219
1534593315.480.937255859375,-0.3955078125,-0.08544921875,1.60217285156,0.564575195312,-0.381469726562
1534593315.480.93896484375,-0.394287109375,-0.0859375,1.54113769531,0.686645507812,-0.343322753906
1534593315.480.940185546875,-0.390869140625,-0.081787109375,1.32751464844,0.808715820312,-0.350952148438
1534593315.490.9384765625,-0.392822265625,-0.080078125,1.54113769531,0.526428222656,-0.335693359375
1534593315.490.93798828125,-0.3955078125,-0.08154296875,1.57165527344,0.320434570312,-0.320434570312
1534593315.490.938720703125,-0.393798828125,-0.08544921875,1.35040283203,0.320434570312,-0.350952148438
1534593315.490.938720703125,-0.396728515625,-0.0849609375,1.59454345703,0.48828125,-0.404357910156
1534593315.490.9375,-0.39306640625,-0.083984375,1.73187255859,0.595092773438,-0.48828125
1534593315.490.93896484375,-0.394287109375,-0.082275390625,1.69372558594,0.473022460938,-0.473022460938
1534593315.490.939208984375,-0.393798828125,-0.082763671875,1.73950195312,0.381469726562,-0.602722167969
1534593315.490.938232421875,-0.392578125,-0.084716796875,1.74713134766,0.42724609375,-0.442504882812
1534593315.490.938232421875,-0.392578125,-0.084716796875,1.72424316406,0.633239746094,-0.442504882812
1534593315.490.939208984375,-0.390380859375,-0.086181640625,1.5869140625,0.289916992188,-0.434875488281
1534593315.50.943603515625,-0.390380859375,-0.0859375,1.44195556641,0.328063964844,-0.595092773438
1534593315.50.944580078125,-0.39501953125,-0.085205078125,1.53350830078,0.595092773438,-0.724792480469
1534593315.50.942626953125,-0.3974609375,-0.08544921875,1.51824951172,0.450134277344,-0.686645507812
1534593315.50.939697265625,-0.39599609375,-0.084228515625,1.60217285156,0.556945800781,-0.6103515625
1534593315.50.93798828125,-0.393798828125,-0.083984375,1.68609619141,0.785827636719,-0.640869140625
1534593315.50.938232421875,-0.393310546875,-0.084228515625,1.60980224609,0.404357910156,-0.686645507812
1534593315.50.942138671875,-0.3916015625,-0.0859375,1.70135498047,0.6103515625,-0.396728515625
1534593315.50.939453125,-0.39208984375,-0.084716796875,1.61743164062,0.747680664062,-0.534057617188
1534593315.50.9375,-0.393798828125,-0.0859375,1.44195556641,0.762939453125,-0.740051269531
1534593315.510.937255859375,-0.396240234375,-0.084228515625,1.57928466797,0.587463378906,-0.617980957031
1534593315.510.93994140625,-0.39404296875,-0.083984375,1.48010253906,0.320434570312,-0.679016113281
1534593315.510.940185546875,-0.393798828125,-0.084228515625,1.29699707031,0.0991821289062,-0.587463378906
1534593315.510.9404296875,-0.393798828125,-0.090087890625,1.37329101562,0.473022460938,-0.312805175781
1534593315.510.939453125,-0.39306640625,-0.089599609375,1.60980224609,0.823974609375,-0.267028808594
1534593315.510.94091796875,-0.39111328125,-0.0849609375,1.3427734375,0.762939453125,-0.114440917969
1534593315.510.940185546875,-0.39013671875,-0.0869140625,1.11389160156,0.434875488281,-0.411987304688
1534593315.510.938232421875,-0.39306640625,-0.08642578125,1.08337402344,0.244140625,-0.602722167969
1534593315.510.9375,-0.393798828125,-0.0830078125,1.16729736328,0.442504882812,-0.579833984375
1534593315.510.93603515625,-0.391845703125,-0.082275390625,1.28936767578,0.846862792969,-0.602722167969
1534593315.520.9365234375,-0.391845703125,-0.083740234375,1.52587890625,0.602722167969,-0.572204589844
1534593315.520.938232421875,-0.39501953125,-0.0830078125,1.57928466797,0.633239746094,-0.663757324219
1534593315.520.9365234375,-0.39453125,-0.083984375,1.63269042969,0.701904296875,-0.67138671875
1534593315.520.9365234375,-0.39453125,-0.083984375,1.52587890625,0.457763671875,-0.602722167969
1534593315.530.9365234375,-0.39306640625,-0.082763671875,1.54876708984,0.289916992188,-0.259399414062
1534593315.530.937255859375,-0.3935546875,-0.087158203125,1.71661376953,0.267028808594,-0.144958496094
1534593315.530.9384765625,-0.394287109375,-0.087646484375,1.66320800781,0.259399414062,-0.396728515625
1534593315.530.940185546875,-0.3935546875,-0.08642578125,1.88446044922,0.396728515625,-0.526428222656
1534593315.530.9404296875,-0.3916015625,-0.083740234375,1.73950195312,0.442504882812,-0.343322753906
1534593315.540.940185546875,-0.392822265625,-0.084228515625,1.39617919922,0.396728515625,-0.221252441406
1534593315.540.939453125,-0.392578125,-0.08349609375,1.43432617188,0.6103515625,-0.160217285156
1534593315.540.936767578125,-0.391845703125,-0.0751953125,1.64031982422,0.541687011719,-0.244140625
1534593315.540.94189453125,-0.392822265625,-0.07666015625,1.42669677734,0.541687011719,-0.244140625
1534593315.540.941162109375,-0.3935546875,-0.085693359375,1.42669677734,0.717163085938,-0.3662109375
1534593315.550.93896484375,-0.39111328125,-0.08935546875,1.61743164062,0.42724609375,-0.511169433594
1534593315.550.937744140625,-0.395751953125,-0.080322265625,1.5869140625,0.480651855469,-0.518798828125
1534593315.550.9375,-0.396484375,-0.0791015625,1.52587890625,0.556945800781,-0.480651855469
1534593315.550.93896484375,-0.396484375,-0.092041015625,1.66320800781,0.48828125,-0.518798828125
1534593315.550.937255859375,-0.394775390625,-0.086181640625,1.81579589844,0.633239746094,-0.480651855469
1534593315.560.935791015625,-0.3955078125,-0.08740234375,1.35803222656,0.686645507812,-0.404357910156
1534593315.560.9384765625,-0.3935546875,-0.081787109375,1.35803222656,0.679016113281,-0.297546386719
1534593315.560.939208984375,-0.3896484375,-0.083740234375,1.60980224609,0.595092773438,-0.30517578125
1534593315.560.939208984375,-0.3916015625,-0.08544921875,1.36566162109,0.251770019531,-0.48828125
1534593315.560.939697265625,-0.392578125,-0.085693359375,1.37329101562,0.42724609375,-0.54931640625
1534593315.560.937255859375,-0.392578125,-0.08642578125,1.38092041016,0.656127929688,-0.473022460938
1534593315.570.939208984375,-0.392333984375,-0.085693359375,1.44195556641,0.442504882812,-0.396728515625
1534593315.570.9375,-0.3955078125,-0.081298828125,1.44195556641,0.30517578125,-0.335693359375
1534593315.570.94189453125,-0.394287109375,-0.08251953125,1.50299072266,0.679016113281,-0.289916992188
1534593315.570.940185546875,-0.392578125,-0.086181640625,1.42669677734,0.679016113281,-0.518798828125
1534593315.570.93798828125,-0.393310546875,-0.086669921875,1.53350830078,0.67138671875,-0.411987304688
1534593315.570.939208984375,-0.39111328125,-0.07958984375,1.73187255859,0.617980957031,-0.648498535156
1534593315.570.941650390625,-0.39013671875,-0.079833984375,1.51062011719,0.518798828125,-0.755310058594
1534593315.570.939697265625,-0.388427734375,-0.080322265625,1.49536132812,0.679016113281,-0.42724609375
1534593315.580.93896484375,-0.39404296875,-0.077880859375,1.51824951172,0.724792480469,-0.312805175781
1534593315.580.93798828125,-0.397216796875,-0.07958984375,1.48010253906,0.656127929688,-0.389099121094
1534593315.580.93505859375,-0.395751953125,-0.082763671875,1.46484375,0.42724609375,-0.358581542969
1534593315.580.936767578125,-0.3935546875,-0.0830078125,1.32751464844,0.42724609375,-0.350952148438
1534593315.580.94140625,-0.390869140625,-0.082275390625,1.36566162109,0.526428222656,-0.18310546875
1534593315.580.943603515625,-0.389892578125,-0.08251953125,1.38854980469,0.732421875,-0.0457763671875
1534593315.580.943359375,-0.39306640625,-0.08544921875,1.55639648438,0.656127929688,-0.129699707031
1534593315.580.945556640625,-0.393798828125,-0.083984375,1.44195556641,0.419616699219,-0.228881835938
1534593315.580.945556640625,-0.393798828125,-0.083984375,1.54876708984,0.358581542969,-0.259399414062
1534593315.580.943603515625,-0.393310546875,-0.078369140625,1.59454345703,0.534057617188,-0.289916992188
1534593315.590.939453125,-0.393798828125,-0.080322265625,1.57165527344,0.556945800781,-0.373840332031
1534593315.590.938720703125,-0.392822265625,-0.0849609375,1.51062011719,0.450134277344,-0.617980957031
1534593315.590.940673828125,-0.394287109375,-0.083984375,1.44195556641,0.442504882812,-0.67138671875
1534593315.590.940185546875,-0.39453125,-0.08154296875,1.51062011719,0.54931640625,-0.450134277344
1534593315.590.939208984375,-0.393798828125,-0.08349609375,1.52587890625,0.579833984375,-0.30517578125
1534593315.590.939208984375,-0.393798828125,-0.08251953125,1.33514404297,0.526428222656,-0.465393066406
1534593315.590.939208984375,-0.3935546875,-0.07958984375,1.3427734375,0.450134277344,-0.564575195312
1534593315.590.939453125,-0.3935546875,-0.079833984375,1.41906738281,0.595092773438,-0.656127929688
1534593315.590.939453125,-0.39306640625,-0.07958984375,1.51824951172,0.79345703125,-0.465393066406
1534593315.590.940185546875,-0.39208984375,-0.08251953125,1.53350830078,0.717163085938,-0.381469726562
1534593315.590.93994140625,-0.39501953125,-0.084228515625,1.51062011719,0.450134277344,-0.572204589844
1534593315.60.939697265625,-0.398193359375,-0.08154296875,1.39617919922,0.251770019531,-0.587463378906
1534593315.60.941162109375,-0.397216796875,-0.079833984375,1.51062011719,0.54931640625,-0.511169433594
1534593315.60.9404296875,-0.39453125,-0.081787109375,1.50299072266,0.595092773438,-0.526428222656
1534593315.60.939453125,-0.392333984375,-0.08642578125,1.45721435547,0.541687011719,-0.564575195312
1534593315.60.94140625,-0.391845703125,-0.087158203125,1.26647949219,0.48828125,-0.419616699219
1534593315.60.940185546875,-0.392578125,-0.085693359375,1.47247314453,0.457763671875,-0.411987304688
1534593315.60.94287109375,-0.391357421875,-0.083740234375,1.60217285156,0.526428222656,-0.404357910156
1534593315.60.946044921875,-0.393310546875,-0.084228515625,1.65557861328,0.656127929688,-0.473022460938
1534593315.60.943359375,-0.39794921875,-0.085693359375,1.67083740234,0.686645507812,-0.434875488281
1534593315.60.943115234375,-0.395263671875,-0.0849609375,1.65557861328,0.503540039062,-0.465393066406
1534593315.610.943115234375,-0.393798828125,-0.08203125,1.72424316406,0.465393066406,-0.54931640625
1534593315.610.93798828125,-0.393798828125,-0.081787109375,1.63269042969,0.663757324219,-0.457763671875
1534593315.610.93505859375,-0.392333984375,-0.081787109375,1.63269042969,0.831604003906,-0.465393066406
1534593315.610.938720703125,-0.39306640625,-0.081298828125,1.33514404297,0.572204589844,-0.358581542969
1534593315.610.941650390625,-0.39501953125,-0.08251953125,1.48773193359,0.373840332031,-0.595092773438
1534593315.610.94140625,-0.390625,-0.0791015625,1.52587890625,0.556945800781,-0.48828125
1534593315.610.9423828125,-0.394775390625,-0.089111328125,1.39617919922,0.480651855469,-0.350952148438
1534593315.620.939453125,-0.393798828125,-0.086181640625,1.69372558594,0.694274902344,-0.518798828125
1534593315.620.94140625,-0.392822265625,-0.082763671875,1.36566162109,0.663757324219,-0.205993652344
1534593315.620.94287109375,-0.39111328125,-0.082763671875,1.42669677734,0.511169433594,-0.267028808594
1534593315.620.94140625,-0.39208984375,-0.088134765625,1.54876708984,0.358581542969,-0.274658203125
1534593315.620.938232421875,-0.39501953125,-0.08935546875,1.60980224609,0.480651855469,-0.381469726562
1534593315.620.93896484375,-0.395751953125,-0.085205078125,1.64794921875,0.6103515625,-0.343322753906
1534593315.620.940185546875,-0.39306640625,-0.080322265625,1.48010253906,0.816345214844,-0.343322753906
1534593315.620.9423828125,-0.389892578125,-0.08349609375,1.39617919922,0.785827636719,-0.396728515625
1534593315.620.942626953125,-0.3896484375,-0.086669921875,1.28173828125,0.625610351562,-0.442504882812
1534593315.630.94140625,-0.395263671875,-0.0859375,1.27410888672,0.42724609375,-0.297546386719
1534593315.630.939697265625,-0.39501953125,-0.086669921875,1.37329101562,0.244140625,-0.312805175781
1534593315.630.938232421875,-0.391845703125,-0.087890625,1.48010253906,0.518798828125,-0.320434570312
1534593315.630.93994140625,-0.3916015625,-0.083984375,1.50299072266,0.556945800781,-0.404357910156
1534593315.630.94189453125,-0.392578125,-0.08251953125,1.67846679688,0.396728515625,-0.396728515625
1534593315.630.94189453125,-0.393310546875,-0.08740234375,1.79290771484,0.42724609375,-0.373840332031
1534593315.630.9404296875,-0.393310546875,-0.087158203125,1.72424316406,0.701904296875,-0.381469726562
1534593315.630.941162109375,-0.39404296875,-0.084716796875,1.81579589844,1.06811523438,-0.54931640625
1534593315.630.941162109375,-0.3916015625,-0.08544921875,1.52587890625,0.923156738281,-0.434875488281
1534593315.630.939697265625,-0.39208984375,-0.08935546875,1.54876708984,0.564575195312,-0.205993652344
1534593315.640.941650390625,-0.3984375,-0.0859375,1.75476074219,0.236511230469,-0.236511230469
1534593315.640.94189453125,-0.397216796875,-0.077880859375,1.86920166016,0.251770019531,-0.3662109375
1534593315.640.94384765625,-0.391845703125,-0.083740234375,1.74713134766,0.350952148438,-0.473022460938
1534593315.640.9404296875,-0.391845703125,-0.084228515625,1.31225585938,0.54931640625,-0.526428222656
1534593315.640.93359375,-0.392578125,-0.08251953125,1.51824951172,0.717163085938,-0.511169433594
1534593315.640.93701171875,-0.39404296875,-0.09033203125,1.76239013672,0.885009765625,-0.473022460938
1534593315.640.938720703125,-0.393798828125,-0.092041015625,1.66320800781,0.67138671875,-0.434875488281
1534593315.640.938232421875,-0.390380859375,-0.09033203125,1.3427734375,0.396728515625,-0.465393066406
1534593315.640.94189453125,-0.390625,-0.0869140625,1.3427734375,0.335693359375,-0.381469726562
1534593315.640.9443359375,-0.390869140625,-0.083740234375,1.38092041016,0.389099121094,-0.312805175781
1534593315.650.942626953125,-0.388427734375,-0.08544921875,1.38854980469,0.625610351562,-0.236511230469
1534593315.650.939208984375,-0.391357421875,-0.085693359375,1.49536132812,0.709533691406,-0.42724609375
1534593315.650.939697265625,-0.39404296875,-0.08154296875,1.65557861328,0.679016113281,-0.480651855469
1534593315.650.941650390625,-0.39306640625,-0.0810546875,1.69372558594,0.434875488281,-0.236511230469
1534593315.650.940673828125,-0.390869140625,-0.085205078125,1.45721435547,0.42724609375,-0.236511230469
1534593315.650.940185546875,-0.391357421875,-0.086669921875,1.22833251953,0.587463378906,-0.556945800781
1534593315.650.942138671875,-0.3916015625,-0.0869140625,1.32751464844,0.556945800781,-0.6103515625
1534593315.650.9384765625,-0.388671875,-0.08251953125,1.48010253906,0.534057617188,-0.244140625
1534593315.650.936767578125,-0.392333984375,-0.079345703125,1.57928466797,0.656127929688,-0.175476074219
1534593315.650.939453125,-0.396728515625,-0.07958984375,1.57165527344,0.724792480469,-0.289916992188
1534593315.660.93994140625,-0.39453125,-0.080810546875,1.31988525391,0.640869140625,-0.251770019531
1534593315.660.9404296875,-0.394287109375,-0.083740234375,1.49536132812,0.564575195312,-0.0762939453125
1534593315.660.938232421875,-0.394287109375,-0.0830078125,1.55639648438,0.656127929688,-0.244140625
1534593315.660.938232421875,-0.394775390625,-0.078857421875,1.52587890625,0.54931640625,-0.48828125
1534593315.660.938232421875,-0.39599609375,-0.077392578125,1.47247314453,0.572204589844,-0.587463378906
1534593315.660.9384765625,-0.39453125,-0.080322265625,1.48773193359,0.54931640625,-0.358581542969
1534593315.660.93896484375,-0.390625,-0.080078125,1.64794921875,0.473022460938,-0.328063964844
1534593315.660.938720703125,-0.39013671875,-0.082763671875,1.69372558594,0.54931640625,-0.213623046875
1534593315.670.939208984375,-0.392822265625,-0.08740234375,1.50299072266,0.6103515625,-0.160217285156
1534593315.670.937744140625,-0.392578125,-0.0859375,1.5869140625,0.556945800781,-0.0839233398438
1534593315.670.936767578125,-0.392822265625,-0.085693359375,1.49536132812,0.396728515625,-0.1220703125
1534593315.670.9375,-0.394775390625,-0.08935546875,1.48773193359,0.503540039062,-0.251770019531
1534593315.670.936767578125,-0.3955078125,-0.08447265625,1.46484375,0.67138671875,-0.328063964844
1534593315.670.938720703125,-0.39599609375,-0.0810546875,1.53350830078,0.686645507812,-0.289916992188
1534593315.670.941162109375,-0.396728515625,-0.081787109375,1.57928466797,0.762939453125,-0.328063964844
1534593315.670.939453125,-0.39501953125,-0.083251953125,1.66320800781,0.617980957031,-0.42724609375
1534593315.680.936767578125,-0.394775390625,-0.081787109375,1.44958496094,0.30517578125,-0.42724609375
1534593315.680.940673828125,-0.3935546875,-0.0830078125,1.5869140625,0.617980957031,-0.556945800781
1534593315.680.938232421875,-0.39501953125,-0.0849609375,1.70135498047,0.442504882812,-0.503540039062
1534593315.690.93701171875,-0.394775390625,-0.078369140625,1.48773193359,0.534057617188,-0.442504882812
1534593315.690.937744140625,-0.395263671875,-0.082763671875,1.56402587891,0.663757324219,-0.42724609375
1534593315.690.939697265625,-0.3955078125,-0.084716796875,1.44958496094,0.839233398438,-0.579833984375
1534593315.690.94287109375,-0.39306640625,-0.08056640625,1.29699707031,0.762939453125,-0.495910644531
1534593315.690.94189453125,-0.3896484375,-0.083984375,1.32751464844,0.282287597656,-0.465393066406
1534593315.690.9365234375,-0.39013671875,-0.08544921875,1.47247314453,0.511169433594,-0.457763671875
1534593315.690.9345703125,-0.393310546875,-0.084228515625,1.70135498047,0.587463378906,-0.434875488281
1534593315.70.938232421875,-0.392822265625,-0.087158203125,1.60980224609,0.297546386719,-0.30517578125
1534593315.70.938720703125,-0.392578125,-0.082763671875,1.54876708984,0.572204589844,-0.457763671875
1534593315.70.938720703125,-0.394287109375,-0.081787109375,1.57165527344,0.389099121094,-0.579833984375
1534593315.70.943359375,-0.3916015625,-0.0849609375,1.40380859375,0.617980957031,-0.358581542969
1534593315.710.94287109375,-0.391845703125,-0.08349609375,1.51062011719,0.518798828125,-0.335693359375
1534593315.710.942138671875,-0.393798828125,-0.0859375,1.55639648438,0.297546386719,-0.289916992188
1534593315.710.942138671875,-0.3955078125,-0.08642578125,1.51062011719,0.419616699219,-0.419616699219
1534593315.710.937255859375,-0.39013671875,-0.087646484375,1.57165527344,0.396728515625,-0.30517578125
1534593315.710.9404296875,-0.391845703125,-0.087890625,1.48773193359,0.3662109375,-0.465393066406
1534593315.720.93994140625,-0.393310546875,-0.0810546875,1.40380859375,0.732421875,-0.42724609375
1534593315.720.939453125,-0.389404296875,-0.089111328125,1.77001953125,0.335693359375,-0.572204589844
1534593315.720.93701171875,-0.3935546875,-0.08837890625,1.67846679688,0.450134277344,-0.442504882812
1534593315.720.937744140625,-0.39111328125,-0.083251953125,1.54113769531,0.411987304688,-0.221252441406
1534593315.720.93896484375,-0.3896484375,-0.08642578125,1.40380859375,0.450134277344,-0.335693359375
1534593315.720.94189453125,-0.391845703125,-0.08935546875,1.46484375,0.6103515625,-0.358581542969
1534593315.720.94384765625,-0.393310546875,-0.0849609375,1.64794921875,0.465393066406,-0.328063964844
1534593315.730.939208984375,-0.392822265625,-0.09130859375,1.66320800781,0.18310546875,-0.297546386719
1534593315.730.9384765625,-0.391845703125,-0.08984375,1.55639648438,0.343322753906,-0.419616699219
1534593315.730.939453125,-0.39208984375,-0.081787109375,1.44958496094,0.457763671875,-0.473022460938
1534593315.730.941162109375,-0.392333984375,-0.087646484375,1.60217285156,0.343322753906,-0.495910644531
1534593315.730.939697265625,-0.394775390625,-0.090087890625,1.63269042969,0.411987304688,-0.633239746094
1534593315.730.939453125,-0.39501953125,-0.08642578125,1.59454345703,0.389099121094,-0.686645507812
1534593315.730.938232421875,-0.392333984375,-0.08154296875,1.48773193359,0.595092773438,-0.526428222656
1534593315.730.936767578125,-0.391357421875,-0.08447265625,1.28936767578,0.579833984375,-0.350952148438
1534593315.730.93603515625,-0.390380859375,-0.087890625,1.27410888672,0.396728515625,-0.221252441406
1534593315.730.93701171875,-0.389892578125,-0.08544921875,1.31225585938,0.42724609375,-0.350952148438
1534593315.740.9375,-0.3916015625,-0.086181640625,1.41906738281,0.48828125,-0.373840332031
1534593315.740.935546875,-0.389892578125,-0.08740234375,1.57928466797,0.579833984375,-0.473022460938
1534593315.740.93603515625,-0.391845703125,-0.085693359375,1.50299072266,0.473022460938,-0.572204589844
1534593315.740.93896484375,-0.39453125,-0.088623046875,1.39617919922,0.381469726562,-0.663757324219
1534593315.740.941650390625,-0.39208984375,-0.0888671875,1.22833251953,0.556945800781,-0.67138671875
1534593315.740.942626953125,-0.390625,-0.084228515625,1.42669677734,0.564575195312,-0.579833984375
1534593315.740.941162109375,-0.390625,-0.082275390625,1.52587890625,0.617980957031,-0.587463378906
1534593315.740.939453125,-0.39111328125,-0.080810546875,1.67083740234,0.648498535156,-0.473022460938
1534593315.740.93896484375,-0.394287109375,-0.081298828125,1.51824951172,0.3662109375,-0.389099121094
1534593315.750.93798828125,-0.3955078125,-0.086669921875,1.32751464844,0.465393066406,-0.419616699219
1534593315.750.941650390625,-0.394287109375,-0.08251953125,1.61743164062,0.755310058594,-0.511169433594
1534593315.750.94140625,-0.392822265625,-0.084716796875,1.62506103516,0.564575195312,-0.3662109375
1534593315.750.94091796875,-0.39013671875,-0.08056640625,1.57165527344,0.381469726562,-0.42724609375
1534593315.750.942626953125,-0.3916015625,-0.08251953125,1.52587890625,0.419616699219,-0.3662109375
1534593315.750.940673828125,-0.395263671875,-0.08935546875,1.708984375,0.350952148438,-0.579833984375
1534593315.750.939453125,-0.39453125,-0.085693359375,1.54876708984,0.442504882812,-0.617980957031
1534593315.750.93798828125,-0.391357421875,-0.082763671875,1.50299072266,0.6103515625,-0.556945800781
1534593315.750.937744140625,-0.392578125,-0.086181640625,1.38092041016,0.534057617188,-0.495910644531
1534593315.750.938720703125,-0.39453125,-0.08642578125,1.56402587891,0.480651855469,-0.534057617188
1534593315.760.9384765625,-0.39404296875,-0.0849609375,1.49536132812,0.6103515625,-0.511169433594
1534593315.760.938232421875,-0.3935546875,-0.084716796875,1.47247314453,0.404357910156,-0.373840332031
1534593315.760.937255859375,-0.3935546875,-0.082275390625,1.54876708984,0.404357910156,-0.442504882812
1534593315.760.9404296875,-0.3896484375,-0.080078125,1.77001953125,0.633239746094,-0.617980957031
1534593315.760.9404296875,-0.39013671875,-0.082275390625,1.77001953125,0.732421875,-0.495910644531
1534593315.760.94140625,-0.39111328125,-0.082763671875,1.64031982422,0.480651855469,-0.282287597656
1534593315.760.9423828125,-0.3896484375,-0.084716796875,1.63269042969,0.228881835938,-0.228881835938
1534593315.760.943603515625,-0.392333984375,-0.07958984375,1.43432617188,0.511169433594,-0.198364257812
1534593315.760.940185546875,-0.394287109375,-0.078857421875,1.29699707031,0.656127929688,-0.190734863281
1534593315.770.93994140625,-0.39306640625,-0.085205078125,1.38092041016,0.663757324219,-0.473022460938
1534593315.770.94287109375,-0.391845703125,-0.086181640625,1.40380859375,0.442504882812,-0.526428222656
1534593315.770.939453125,-0.394287109375,-0.086181640625,1.43432617188,0.602722167969,-0.381469726562
1534593315.770.9384765625,-0.397216796875,-0.0888671875,1.5869140625,0.633239746094,-0.419616699219
1534593315.770.936279296875,-0.395751953125,-0.089599609375,1.60217285156,0.526428222656,-0.320434570312
1534593315.770.93896484375,-0.395263671875,-0.087158203125,1.52587890625,0.518798828125,-0.259399414062
1534593315.770.943603515625,-0.397216796875,-0.084228515625,1.66320800781,0.404357910156,-0.328063964844
1534593315.770.94091796875,-0.397705078125,-0.0810546875,1.46484375,0.54931640625,-0.442504882812
1534593315.770.938232421875,-0.39453125,-0.08447265625,1.3427734375,0.54931640625,-0.434875488281
1534593315.770.9384765625,-0.39599609375,-0.08544921875,1.59454345703,0.465393066406,-0.419616699219
1534593315.780.9365234375,-0.396484375,-0.08203125,1.64794921875,0.480651855469,-0.465393066406
1534593315.780.93798828125,-0.392578125,-0.083251953125,1.50299072266,0.732421875,-0.3662109375
1534593315.780.9384765625,-0.390380859375,-0.0810546875,1.53350830078,0.686645507812,-0.343322753906
1534593315.780.937255859375,-0.391357421875,-0.08349609375,1.5869140625,0.480651855469,-0.320434570312
1534593315.780.93798828125,-0.392333984375,-0.083251953125,1.48010253906,0.564575195312,-0.434875488281
1534593315.780.939453125,-0.39306640625,-0.083984375,1.38092041016,0.48828125,-0.442504882812
1534593315.780.940185546875,-0.390869140625,-0.087158203125,1.54113769531,0.48828125,-0.328063964844
1534593315.780.93798828125,-0.3896484375,-0.084228515625,1.72424316406,0.679016113281,-0.289916992188
1534593315.780.93701171875,-0.392333984375,-0.085693359375,1.61743164062,0.67138671875,-0.473022460938
1534593315.780.936767578125,-0.393310546875,-0.086181640625,1.53350830078,0.343322753906,-0.595092773438
1534593315.790.938720703125,-0.393798828125,-0.0849609375,1.65557861328,0.198364257812,-0.282287597656
1534593315.790.939208984375,-0.391357421875,-0.083740234375,1.708984375,0.244140625,-0.221252441406
1534593315.790.939208984375,-0.391357421875,-0.083740234375,1.73950195312,0.381469726562,-0.526428222656
1534593315.790.93994140625,-0.392822265625,-0.08154296875,1.67083740234,0.572204589844,-0.717163085938
1534593315.790.9384765625,-0.392333984375,-0.085205078125,1.48773193359,0.595092773438,-0.289916992188
1534593315.790.941162109375,-0.394775390625,-0.0869140625,1.48773193359,0.572204589844,-0.350952148438
1534593315.790.941162109375,-0.394775390625,-0.0869140625,1.57165527344,0.579833984375,-0.465393066406
1534593315.790.938232421875,-0.3955078125,-0.08935546875,1.5869140625,0.534057617188,-0.289916992188
1534593315.790.937744140625,-0.3935546875,-0.088134765625,1.31225585938,0.503540039062,-0.251770019531
1534593315.80.935791015625,-0.395751953125,-0.08447265625,1.57928466797,0.572204589844,-0.450134277344
1534593315.80.9423828125,-0.3916015625,-0.083251953125,1.45721435547,0.617980957031,-0.343322753906
1534593315.80.9423828125,-0.39453125,-0.079345703125,1.35803222656,0.511169433594,-0.320434570312
1534593315.80.94091796875,-0.392822265625,-0.079345703125,1.41906738281,0.244140625,-0.434875488281
1534593315.80.94091796875,-0.392822265625,-0.079345703125,1.49536132812,0.221252441406,-0.3662109375
1534593315.80.94287109375,-0.394775390625,-0.076904296875,1.50299072266,0.54931640625,-0.396728515625
1534593315.80.939453125,-0.392333984375,-0.08251953125,1.39617919922,0.54931640625,-0.358581542969
1534593315.80.939453125,-0.392333984375,-0.08251953125,1.38092041016,0.564575195312,-0.350952148438
1534593315.80.938232421875,-0.392578125,-0.0888671875,1.43432617188,0.679016113281,-0.389099121094
1534593315.80.9384765625,-0.39208984375,-0.09033203125,1.60980224609,0.511169433594,-0.411987304688
1534593315.810.937255859375,-0.39453125,-0.08349609375,1.68609619141,0.633239746094,-0.221252441406
1534593315.810.937255859375,-0.39453125,-0.08349609375,1.56402587891,0.54931640625,-0.320434570312
1534593315.810.94091796875,-0.39306640625,-0.085205078125,1.54113769531,0.534057617188,-0.343322753906
1534593315.810.9404296875,-0.393798828125,-0.086669921875,1.40380859375,0.396728515625,-0.297546386719
1534593315.810.938232421875,-0.39453125,-0.0859375,1.44195556641,0.312805175781,-0.335693359375
1534593315.810.938232421875,-0.3955078125,-0.080078125,1.66320800781,0.343322753906,-0.457763671875
1534593315.810.938720703125,-0.391845703125,-0.087890625,1.75476074219,0.556945800781,-0.480651855469
1534593315.810.9384765625,-0.388427734375,-0.087158203125,1.67083740234,0.823974609375,-0.350952148438
1534593315.810.93701171875,-0.390380859375,-0.080810546875,1.56402587891,0.816345214844,-0.205993652344
1534593315.810.939697265625,-0.38916015625,-0.08544921875,1.42669677734,0.625610351562,-0.259399414062
1534593315.820.94189453125,-0.394287109375,-0.08544921875,1.46484375,0.503540039062,-0.30517578125
1534593315.820.941650390625,-0.3994140625,-0.08544921875,1.43432617188,0.205993652344,-0.411987304688
1534593315.820.9423828125,-0.39599609375,-0.0859375,1.52587890625,0.335693359375,-0.503540039062
1534593315.820.940673828125,-0.3916015625,-0.0859375,1.57165527344,0.381469726562,-0.381469726562
1534593315.820.940673828125,-0.3916015625,-0.0859375,1.5869140625,0.465393066406,-0.411987304688
1534593315.820.939208984375,-0.392822265625,-0.08837890625,1.62506103516,0.343322753906,-0.54931640625
1534593315.820.93896484375,-0.39208984375,-0.084228515625,1.5869140625,0.259399414062,-0.503540039062
1534593315.830.939208984375,-0.3896484375,-0.08447265625,1.57928466797,0.587463378906,-0.343322753906
1534593315.830.93896484375,-0.392333984375,-0.080322265625,1.44195556641,0.518798828125,-0.381469726562
1534593315.830.937744140625,-0.391357421875,-0.080810546875,1.62506103516,0.595092773438,-0.465393066406
1534593315.840.9404296875,-0.394775390625,-0.085693359375,1.63269042969,0.541687011719,-0.572204589844
1534593315.840.940185546875,-0.395751953125,-0.081787109375,1.5869140625,0.778198242188,-0.648498535156
1534593315.840.9404296875,-0.396484375,-0.087646484375,1.54113769531,0.862121582031,-0.434875488281
1534593315.840.9423828125,-0.393310546875,-0.084716796875,1.73187255859,0.755310058594,-0.625610351562
1534593315.840.9375,-0.390869140625,-0.08544921875,1.73187255859,0.511169433594,-0.48828125
1534593315.840.940673828125,-0.390869140625,-0.081298828125,1.74713134766,0.30517578125,-0.419616699219
1534593315.840.941162109375,-0.389892578125,-0.082275390625,1.64031982422,0.190734863281,-0.373840332031
1534593315.850.936279296875,-0.394287109375,-0.083740234375,1.13677978516,0.480651855469,-0.373840332031
1534593315.850.941162109375,-0.39501953125,-0.082275390625,1.43432617188,0.511169433594,-0.190734863281
1534593315.850.940673828125,-0.396728515625,-0.086181640625,1.78527832031,0.564575195312,-0.503540039062
1534593315.850.94140625,-0.39453125,-0.0869140625,1.47247314453,0.587463378906,-0.434875488281
1534593315.860.935791015625,-0.3955078125,-0.083740234375,1.53350830078,0.694274902344,-0.411987304688
1534593315.860.937744140625,-0.391845703125,-0.082275390625,1.44958496094,0.434875488281,-0.457763671875
1534593315.860.936767578125,-0.389892578125,-0.083740234375,1.50299072266,0.526428222656,-0.579833984375
1534593315.860.934814453125,-0.391357421875,-0.08984375,1.48773193359,0.701904296875,-0.213623046875
1534593315.860.9384765625,-0.396728515625,-0.085693359375,1.44958496094,0.724792480469,-0.167846679688
1534593315.860.93798828125,-0.396728515625,-0.088623046875,1.49536132812,0.358581542969,-0.221252441406
1534593315.860.939453125,-0.39404296875,-0.088134765625,1.66320800781,0.480651855469,-0.442504882812
1534593315.860.940185546875,-0.393798828125,-0.085693359375,1.59454345703,0.6103515625,-0.358581542969
1534593315.870.940673828125,-0.3955078125,-0.0791015625,1.44958496094,0.541687011719,-0.328063964844
1534593315.870.9384765625,-0.3935546875,-0.083251953125,1.65557861328,0.419616699219,-0.358581542969
1534593315.870.9375,-0.39599609375,-0.080078125,1.53350830078,0.701904296875,-0.595092773438
1534593315.870.9375,-0.396728515625,-0.081298828125,1.3427734375,0.67138671875,-0.511169433594
1534593315.870.9404296875,-0.39501953125,-0.0859375,1.54113769531,0.457763671875,-0.3662109375
1534593315.870.9365234375,-0.39208984375,-0.086181640625,1.49536132812,0.312805175781,-0.457763671875
1534593315.880.936767578125,-0.39111328125,-0.08154296875,1.36566162109,0.465393066406,-0.511169433594
1534593315.880.94140625,-0.392578125,-0.08056640625,1.36566162109,0.503540039062,-0.572204589844
1534593315.880.942138671875,-0.39599609375,-0.0830078125,1.52587890625,0.289916992188,-0.617980957031
1534593315.880.940185546875,-0.39794921875,-0.090576171875,1.29699707031,0.42724609375,-0.602722167969
1534593315.880.93701171875,-0.395751953125,-0.086669921875,1.36566162109,0.617980957031,-0.450134277344
1534593315.880.93505859375,-0.39208984375,-0.091064453125,1.43432617188,0.6103515625,-0.511169433594
1534593315.880.937744140625,-0.39208984375,-0.087158203125,1.55639648438,0.694274902344,-0.457763671875
1534593315.880.94091796875,-0.397705078125,-0.080078125,1.64794921875,0.724792480469,-0.3662109375
1534593315.880.941162109375,-0.401123046875,-0.086669921875,1.64031982422,0.503540039062,-0.503540039062
1534593315.890.938720703125,-0.399169921875,-0.085693359375,1.60217285156,0.396728515625,-0.694274902344
1534593315.890.935302734375,-0.396484375,-0.08447265625,1.54113769531,0.526428222656,-0.694274902344
1534593315.890.936767578125,-0.3974609375,-0.088134765625,1.47247314453,0.595092773438,-0.617980957031
1534593315.890.93798828125,-0.395751953125,-0.089111328125,1.57165527344,0.534057617188,-0.282287597656
1534593315.890.938232421875,-0.39306640625,-0.08642578125,1.60217285156,0.48828125,-0.1220703125
1534593315.890.940673828125,-0.393798828125,-0.07861328125,1.48773193359,0.572204589844,-0.274658203125
1534593315.890.940673828125,-0.396484375,-0.076904296875,1.56402587891,0.434875488281,-0.473022460938
1534593315.890.93994140625,-0.39599609375,-0.08154296875,1.65557861328,0.205993652344,-0.656127929688
1534593315.890.939208984375,-0.391357421875,-0.083984375,1.60980224609,0.3662109375,-0.511169433594
1534593315.890.93896484375,-0.39111328125,-0.0849609375,1.64031982422,0.663757324219,-0.328063964844
1534593315.90.935791015625,-0.390625,-0.083984375,1.59454345703,0.724792480469,-0.259399414062
1534593315.90.93505859375,-0.39453125,-0.080810546875,1.54876708984,0.679016113281,-0.152587890625
1534593315.90.93994140625,-0.39697265625,-0.07958984375,1.54876708984,0.54931640625,-0.091552734375
1534593315.90.9384765625,-0.39404296875,-0.0830078125,1.71661376953,0.442504882812,-0.48828125
1534593315.90.9384765625,-0.39306640625,-0.0849609375,1.39617919922,0.862121582031,-0.419616699219
1534593315.90.940185546875,-0.394287109375,-0.081298828125,1.48010253906,0.762939453125,-0.297546386719
1534593315.90.940185546875,-0.39453125,-0.075927734375,1.61743164062,0.686645507812,-0.205993652344
1534593315.90.93896484375,-0.39404296875,-0.081787109375,1.64794921875,0.648498535156,-0.06103515625
1534593315.910.93505859375,-0.39404296875,-0.083740234375,1.61743164062,0.67138671875,-0.221252441406
1534593315.910.935546875,-0.391845703125,-0.07861328125,1.74713134766,0.579833984375,-0.221252441406
1534593315.910.938232421875,-0.388916015625,-0.0771484375,1.80816650391,0.556945800781,-0.30517578125
1534593315.910.942138671875,-0.392578125,-0.079833984375,1.48010253906,0.625610351562,-0.564575195312
1534593315.910.93896484375,-0.393798828125,-0.088623046875,1.28173828125,0.625610351562,-0.480651855469
1534593315.910.934326171875,-0.392822265625,-0.09130859375,1.26647949219,0.595092773438,-0.358581542969
1534593315.910.93408203125,-0.393798828125,-0.086181640625,1.56402587891,0.587463378906,-0.381469726562
1534593315.910.937255859375,-0.391357421875,-0.0869140625,1.76239013672,0.823974609375,-0.633239746094
1534593315.910.939208984375,-0.3896484375,-0.085205078125,1.92260742188,0.91552734375,-0.587463378906
1534593315.910.93798828125,-0.389404296875,-0.084228515625,1.82342529297,0.869750976562,-0.389099121094
1534593315.920.9365234375,-0.39013671875,-0.08349609375,1.41906738281,0.762939453125,-0.350952148438
1534593315.920.933837890625,-0.3916015625,-0.080322265625,1.19018554688,0.808715820312,-0.48828125
1534593315.920.93505859375,-0.39208984375,-0.081787109375,1.22833251953,0.595092773438,-0.526428222656
1534593315.920.93701171875,-0.39208984375,-0.085693359375,1.39617919922,0.289916992188,-0.450134277344
1534593315.920.940185546875,-0.39453125,-0.085205078125,1.57165527344,0.30517578125,-0.54931640625
1534593315.920.942626953125,-0.39501953125,-0.08544921875,1.60217285156,0.564575195312,-0.473022460938
1534593315.920.941162109375,-0.391357421875,-0.0859375,1.57928466797,0.694274902344,-0.42724609375
1534593315.920.941162109375,-0.39013671875,-0.0869140625,1.46484375,0.648498535156,-0.419616699219
1534593315.920.939453125,-0.39501953125,-0.090087890625,1.31225585938,0.503540039062,-0.6103515625
1534593315.930.93798828125,-0.39892578125,-0.087158203125,1.3427734375,0.564575195312,-0.465393066406
1534593315.930.937255859375,-0.392333984375,-0.078125,1.5869140625,0.587463378906,-0.54931640625
1534593315.930.93798828125,-0.39453125,-0.081787109375,1.53350830078,0.320434570312,-0.404357910156
1534593315.930.944091796875,-0.393798828125,-0.085693359375,1.56402587891,0.450134277344,-0.617980957031
1534593315.930.94384765625,-0.3935546875,-0.087890625,1.60217285156,0.457763671875,-0.518798828125
1534593315.930.94091796875,-0.39306640625,-0.081787109375,1.49536132812,0.473022460938,-0.656127929688
1534593315.930.9404296875,-0.394287109375,-0.08251953125,1.32751464844,0.434875488281,-0.831604003906
1534593315.940.9384765625,-0.394775390625,-0.090576171875,1.31225585938,0.495910644531,-0.67138671875
1534593315.940.940673828125,-0.39892578125,-0.087890625,1.44958496094,0.457763671875,-0.381469726562
1534593315.940.941650390625,-0.396484375,-0.082275390625,1.60980224609,0.3662109375,-0.419616699219
1534593315.940.934814453125,-0.39013671875,-0.080322265625,1.51062011719,0.434875488281,-0.648498535156
1534593315.940.934326171875,-0.389892578125,-0.08056640625,1.40380859375,0.579833984375,-0.556945800781
1534593315.940.9404296875,-0.393310546875,-0.07958984375,1.57928466797,0.579833984375,-0.396728515625
1534593315.940.942626953125,-0.395263671875,-0.08203125,1.66320800781,0.503540039062,-0.434875488281
1534593315.940.944091796875,-0.395263671875,-0.086181640625,1.60217285156,0.572204589844,-0.411987304688
1534593315.940.94287109375,-0.39697265625,-0.0869140625,1.59454345703,0.42724609375,-0.373840332031
1534593315.940.939697265625,-0.394287109375,-0.086181640625,1.54113769531,0.587463378906,-0.450134277344
1534593315.950.93896484375,-0.39208984375,-0.08837890625,1.60980224609,0.518798828125,-0.30517578125
1534593315.950.939208984375,-0.392333984375,-0.082763671875,1.49536132812,0.67138671875,-0.465393066406
1534593315.950.939208984375,-0.390869140625,-0.08056640625,1.31225585938,0.541687011719,-0.518798828125
1534593315.950.93896484375,-0.39013671875,-0.089599609375,1.40380859375,0.320434570312,-0.358581542969
1534593315.950.94091796875,-0.39306640625,-0.090087890625,1.57928466797,0.465393066406,-0.404357910156
1534593315.950.9423828125,-0.396240234375,-0.085693359375,1.63269042969,0.343322753906,-0.495910644531
1534593315.950.942138671875,-0.39501953125,-0.0830078125,1.54113769531,0.572204589844,-0.259399414062
1534593315.950.937744140625,-0.391357421875,-0.084228515625,1.32751464844,0.595092773438,-0.0381469726562
1534593315.950.936279296875,-0.39111328125,-0.087158203125,1.20544433594,0.663757324219,-0.167846679688
1534593315.950.939208984375,-0.391845703125,-0.085205078125,1.45721435547,0.679016113281,-0.213623046875
1534593315.960.940185546875,-0.39111328125,-0.081298828125,1.68609619141,0.457763671875,-0.450134277344
1534593315.960.940673828125,-0.389404296875,-0.082275390625,1.49536132812,0.404357910156,-0.534057617188
1534593315.960.93798828125,-0.392578125,-0.083740234375,1.52587890625,0.579833984375,-0.404357910156
1534593315.960.934814453125,-0.39501953125,-0.085693359375,1.56402587891,0.633239746094,-0.213623046875
1534593315.960.938720703125,-0.39111328125,-0.089599609375,1.69372558594,0.724792480469,-0.289916992188
1534593315.960.939697265625,-0.390625,-0.09033203125,1.63269042969,0.816345214844,-0.42724609375
1534593315.960.9384765625,-0.390869140625,-0.087646484375,1.35040283203,0.79345703125,-0.297546386719
1534593315.960.939697265625,-0.391357421875,-0.0869140625,1.29699707031,0.411987304688,-0.42724609375
1534593315.960.939697265625,-0.391357421875,-0.0869140625,1.62506103516,0.259399414062,-0.473022460938
1534593315.960.94189453125,-0.395263671875,-0.0849609375,1.65557861328,0.656127929688,-0.457763671875
1534593315.960.94140625,-0.39453125,-0.083740234375,1.65557861328,0.991821289062,-0.358581542969
1534593315.970.93896484375,-0.391357421875,-0.084716796875,1.54113769531,0.923156738281,-0.251770019531
1534593315.970.9384765625,-0.391845703125,-0.083251953125,1.54876708984,0.617980957031,-0.236511230469
1534593315.970.939208984375,-0.39306640625,-0.08642578125,1.70135498047,0.3662109375,-0.297546386719
1534593315.970.941162109375,-0.39208984375,-0.090576171875,1.70135498047,0.396728515625,-0.335693359375
1534593315.970.94091796875,-0.39306640625,-0.088134765625,1.708984375,0.511169433594,-0.42724609375
1534593315.970.93701171875,-0.393310546875,-0.083740234375,1.60217285156,0.587463378906,-0.656127929688
1534593315.970.943115234375,-0.39404296875,-0.08740234375,1.41143798828,0.663757324219,-0.495910644531
1534593315.970.942138671875,-0.39697265625,-0.087890625,1.57165527344,0.221252441406,-0.205993652344
1534593315.980.936767578125,-0.393310546875,-0.086669921875,1.60217285156,0.30517578125,-0.396728515625
1534593315.980.93408203125,-0.389404296875,-0.087158203125,1.36566162109,0.595092773438,-0.404357910156
1534593315.980.9375,-0.388671875,-0.083740234375,1.37329101562,0.785827636719,-0.389099121094
1534593315.980.938720703125,-0.3876953125,-0.0869140625,1.36566162109,0.67138671875,-0.312805175781
1534593315.980.938720703125,-0.3876953125,-0.0869140625,1.41906738281,0.289916992188,-0.152587890625
1534593315.980.93701171875,-0.390380859375,-0.089599609375,1.50299072266,0.18310546875,-0.358581542969
1534593315.980.938720703125,-0.393798828125,-0.085205078125,1.48773193359,0.694274902344,-0.411987304688
1534593315.980.9404296875,-0.392333984375,-0.08251953125,1.45721435547,0.8544921875,-0.411987304688
1534593315.980.940185546875,-0.39208984375,-0.07958984375,1.48010253906,0.541687011719,-0.389099121094
1534593315.990.93896484375,-0.39306640625,-0.086181640625,1.51062011719,0.526428222656,-0.312805175781
1534593315.990.94189453125,-0.394287109375,-0.085693359375,1.57928466797,0.335693359375,-0.564575195312
1534593315.990.936767578125,-0.39453125,-0.082763671875,1.51062011719,0.648498535156,-0.267028808594
1534593316.00.936767578125,-0.3935546875,-0.08203125,1.43432617188,0.518798828125,-0.106811523438
1534593316.00.940185546875,-0.389892578125,-0.0849609375,1.65557861328,0.579833984375,-0.236511230469
1534593316.00.938720703125,-0.39306640625,-0.083251953125,1.54876708984,0.579833984375,-0.320434570312
1534593316.00.93896484375,-0.390869140625,-0.0888671875,1.79290771484,0.602722167969,-0.335693359375
1534593316.00.94140625,-0.39111328125,-0.089111328125,1.79290771484,0.679016113281,-0.389099121094
1534593316.010.942626953125,-0.391357421875,-0.085205078125,1.55639648438,0.831604003906,-0.442504882812
1534593316.010.9384765625,-0.3935546875,-0.08251953125,1.41906738281,0.701904296875,-0.282287597656
1534593316.010.93603515625,-0.395263671875,-0.07763671875,1.42669677734,0.503540039062,-0.358581542969
1534593316.010.935302734375,-0.395751953125,-0.076416015625,1.56402587891,0.411987304688,-0.335693359375
1534593316.010.942626953125,-0.39111328125,-0.087890625,1.76239013672,0.297546386719,-0.411987304688
1534593316.020.940185546875,-0.3916015625,-0.0927734375,1.67083740234,0.541687011719,-0.289916992188
1534593316.020.940673828125,-0.396484375,-0.084716796875,1.60980224609,0.358581542969,-0.518798828125
1534593316.020.940185546875,-0.39697265625,-0.08447265625,1.52587890625,0.518798828125,-0.358581542969
1534593316.020.93798828125,-0.393798828125,-0.0869140625,1.59454345703,0.312805175781,-0.602722167969
1534593316.020.944580078125,-0.39453125,-0.0859375,1.59454345703,0.282287597656,-0.54931640625
1534593316.020.94482421875,-0.39501953125,-0.08251953125,1.50299072266,0.656127929688,-0.48828125
1534593316.020.940185546875,-0.395751953125,-0.079833984375,1.38854980469,0.42724609375,-0.389099121094
1534593316.030.935302734375,-0.38916015625,-0.077880859375,1.67083740234,0.42724609375,-0.434875488281
1534593316.030.9384765625,-0.390625,-0.079833984375,1.57165527344,0.755310058594,-0.373840332031
1534593316.030.939453125,-0.396728515625,-0.081787109375,1.47247314453,0.556945800781,-0.663757324219
1534593316.030.939453125,-0.394775390625,-0.084228515625,1.44958496094,0.526428222656,-0.679016113281
1534593316.030.939453125,-0.391845703125,-0.08349609375,1.47247314453,0.480651855469,-0.572204589844
1534593316.030.941650390625,-0.390625,-0.083740234375,1.51062011719,0.480651855469,-0.564575195312
1534593316.040.942626953125,-0.39453125,-0.08642578125,1.220703125,0.495910644531,-0.434875488281
1534593316.040.9384765625,-0.390380859375,-0.08447265625,1.67083740234,0.389099121094,-0.503540039062
1534593316.040.934326171875,-0.39013671875,-0.0849609375,1.60980224609,0.343322753906,-0.259399414062
1534593316.040.93505859375,-0.387939453125,-0.08203125,1.47247314453,0.450134277344,-0.648498535156
1534593316.040.93408203125,-0.394775390625,-0.083251953125,1.49536132812,0.48828125,-0.572204589844
1534593316.040.939208984375,-0.3955078125,-0.08251953125,1.76239013672,0.770568847656,-0.373840332031
1534593316.050.9404296875,-0.391357421875,-0.0859375,1.36566162109,0.3662109375,-0.259399414062
1534593316.050.939697265625,-0.390869140625,-0.089599609375,1.43432617188,0.732421875,-0.152587890625
1534593316.050.9404296875,-0.393310546875,-0.087646484375,1.47247314453,0.747680664062,-0.312805175781
1534593316.050.938232421875,-0.390380859375,-0.09130859375,1.48773193359,0.541687011719,-0.526428222656
1534593316.050.9375,-0.39453125,-0.088623046875,1.63269042969,0.450134277344,-0.350952148438
1534593316.050.93701171875,-0.394775390625,-0.084228515625,1.53350830078,0.54931640625,-0.328063964844
1534593316.060.938232421875,-0.394287109375,-0.085693359375,1.22833251953,0.6103515625,-0.3662109375
1534593316.060.939697265625,-0.392333984375,-0.08544921875,1.33514404297,0.625610351562,-0.457763671875
1534593316.060.93994140625,-0.389892578125,-0.085205078125,1.45721435547,0.732421875,-0.373840332031
1534593316.060.94140625,-0.391357421875,-0.084228515625,1.45721435547,0.534057617188,-0.495910644531
1534593316.060.942626953125,-0.394775390625,-0.08642578125,1.29699707031,0.335693359375,-0.579833984375
1534593316.060.93896484375,-0.390625,-0.09033203125,1.53350830078,0.625610351562,-0.48828125
1534593316.060.9404296875,-0.393798828125,-0.084716796875,1.51062011719,0.465393066406,-0.396728515625
1534593316.060.939697265625,-0.3916015625,-0.083740234375,1.47247314453,0.511169433594,-0.404357910156
1534593316.060.9404296875,-0.3876953125,-0.084716796875,1.57928466797,0.48828125,-0.534057617188
1534593316.060.941650390625,-0.39111328125,-0.085205078125,1.47247314453,0.419616699219,-0.480651855469
1534593316.070.938232421875,-0.393310546875,-0.089111328125,1.44958496094,0.595092773438,-0.312805175781
1534593316.070.938232421875,-0.393310546875,-0.089111328125,1.62506103516,0.595092773438,-0.358581542969
1534593316.070.9375,-0.395263671875,-0.0908203125,1.57165527344,0.320434570312,-0.54931640625
1534593316.070.940673828125,-0.394775390625,-0.083740234375,1.63269042969,0.564575195312,-0.411987304688
1534593316.070.939697265625,-0.391845703125,-0.076904296875,1.79290771484,0.54931640625,-0.167846679688
1534593316.070.940185546875,-0.393310546875,-0.078369140625,1.79290771484,0.572204589844,-0.343322753906
1534593316.070.939697265625,-0.3935546875,-0.080322265625,1.59454345703,0.473022460938,-0.404357910156
1534593316.070.938720703125,-0.393798828125,-0.0810546875,1.42669677734,0.389099121094,-0.450134277344
1534593316.070.94091796875,-0.396484375,-0.083984375,1.51062011719,0.465393066406,-0.328063964844
1534593316.070.9404296875,-0.392822265625,-0.086669921875,1.57165527344,0.663757324219,-0.511169433594
1534593316.080.93798828125,-0.388671875,-0.08203125,1.52587890625,0.709533691406,-0.42724609375
1534593316.080.9384765625,-0.391357421875,-0.077392578125,1.3427734375,0.6103515625,-0.274658203125
1534593316.080.939208984375,-0.39404296875,-0.0830078125,1.25122070312,0.48828125,-0.274658203125
1534593316.080.937744140625,-0.393798828125,-0.089111328125,1.49536132812,0.30517578125,-0.457763671875
1534593316.080.93798828125,-0.393798828125,-0.088623046875,1.64794921875,0.42724609375,-0.541687011719
1534593316.080.9384765625,-0.39453125,-0.089599609375,1.56402587891,0.541687011719,-0.457763671875
1534593316.080.938232421875,-0.392333984375,-0.087158203125,1.46484375,0.724792480469,-0.381469726562
1534593316.080.938720703125,-0.392822265625,-0.08349609375,1.51824951172,0.762939453125,-0.503540039062
1534593316.080.940673828125,-0.392333984375,-0.085205078125,1.60980224609,0.67138671875,-0.450134277344
1534593316.080.944091796875,-0.38916015625,-0.0849609375,1.72424316406,0.602722167969,-0.198364257812
1534593316.080.943359375,-0.391357421875,-0.0849609375,1.69372558594,0.473022460938,-0.236511230469
1534593316.090.939453125,-0.396240234375,-0.0859375,1.63269042969,0.564575195312,-0.228881835938
1534593316.090.937255859375,-0.398193359375,-0.08251953125,1.40380859375,0.526428222656,-0.320434570312
1534593316.090.93701171875,-0.395263671875,-0.08154296875,1.33514404297,0.595092773438,-0.244140625
1534593316.090.9375,-0.395751953125,-0.086669921875,1.50299072266,0.709533691406,-0.297546386719
1534593316.090.938232421875,-0.39794921875,-0.08984375,1.45721435547,0.633239746094,-0.526428222656
1534593316.090.936279296875,-0.396728515625,-0.08349609375,1.28936767578,0.495910644531,-0.411987304688
1534593316.090.9365234375,-0.393310546875,-0.078125,1.25885009766,0.518798828125,-0.495910644531
1534593316.090.939208984375,-0.392822265625,-0.082763671875,1.39617919922,0.640869140625,-0.572204589844
1534593316.090.9384765625,-0.39453125,-0.081787109375,1.48773193359,0.724792480469,-0.473022460938
1534593316.090.942138671875,-0.3935546875,-0.077880859375,1.45721435547,0.587463378906,-0.343322753906
1534593316.10.943115234375,-0.394775390625,-0.083251953125,1.56402587891,0.625610351562,-0.328063964844
1534593316.10.944091796875,-0.39599609375,-0.082763671875,1.51062011719,0.587463378906,-0.343322753906
1534593316.10.946533203125,-0.39453125,-0.079345703125,1.41906738281,0.572204589844,-0.198364257812
1534593316.10.943603515625,-0.394775390625,-0.0830078125,1.51062011719,0.389099121094,-0.320434570312
1534593316.10.940185546875,-0.39599609375,-0.087158203125,1.60217285156,0.526428222656,-0.419616699219
1534593316.10.940185546875,-0.3955078125,-0.089111328125,1.8310546875,0.717163085938,-0.42724609375
1534593316.10.938720703125,-0.394287109375,-0.085205078125,1.64794921875,0.587463378906,-0.480651855469
1534593316.10.935791015625,-0.3935546875,-0.082763671875,1.40380859375,0.480651855469,-0.42724609375
1534593316.10.93701171875,-0.391845703125,-0.08544921875,1.36566162109,0.625610351562,-0.358581542969
1534593316.10.937255859375,-0.391845703125,-0.08203125,1.47247314453,0.411987304688,-0.434875488281
1534593316.110.938232421875,-0.393798828125,-0.07958984375,1.45721435547,0.404357910156,-0.54931640625
1534593316.110.93896484375,-0.39599609375,-0.0830078125,1.41143798828,0.404357910156,-0.518798828125
1534593316.110.93701171875,-0.39794921875,-0.08544921875,1.52587890625,0.419616699219,-0.465393066406
1534593316.110.9365234375,-0.3955078125,-0.08251953125,1.59454345703,0.473022460938,-0.358581542969
1534593316.110.93701171875,-0.391357421875,-0.078125,1.60980224609,0.450134277344,-0.442504882812
1534593316.110.939697265625,-0.391357421875,-0.079345703125,1.54876708984,0.42724609375,-0.503540039062
1534593316.110.943603515625,-0.392578125,-0.08056640625,1.41906738281,0.656127929688,-0.434875488281
1534593316.110.94482421875,-0.394287109375,-0.078857421875,1.46484375,0.79345703125,-0.42724609375
1534593316.110.93896484375,-0.394775390625,-0.08349609375,1.60217285156,0.8544921875,-0.312805175781
1534593316.110.93310546875,-0.39306640625,-0.082275390625,1.52587890625,0.602722167969,-0.3662109375
1534593316.120.936279296875,-0.393798828125,-0.07421875,1.52587890625,0.335693359375,-0.54931640625
1534593316.120.93896484375,-0.395751953125,-0.077392578125,1.56402587891,0.381469726562,-0.602722167969
1534593316.120.93994140625,-0.39599609375,-0.089111328125,1.60217285156,0.587463378906,-0.564575195312
1534593316.120.93701171875,-0.396484375,-0.08984375,1.37329101562,0.709533691406,-0.450134277344
1534593316.120.93603515625,-0.394775390625,-0.0830078125,1.38092041016,0.846862792969,-0.587463378906
1534593316.120.9384765625,-0.393798828125,-0.082763671875,1.50299072266,0.633239746094,-0.518798828125
1534593316.120.935546875,-0.39453125,-0.08349609375,1.42669677734,0.328063964844,-0.587463378906
1534593316.120.940185546875,-0.39208984375,-0.08203125,1.55639648438,0.480651855469,-0.518798828125
1534593316.130.938232421875,-0.39453125,-0.0849609375,1.44958496094,0.335693359375,-0.350952148438
1534593316.130.9384765625,-0.393798828125,-0.08984375,1.36566162109,0.312805175781,-0.411987304688
1534593316.130.9375,-0.39501953125,-0.089599609375,1.45721435547,0.419616699219,-0.480651855469
1534593316.130.93994140625,-0.396484375,-0.091552734375,1.62506103516,0.434875488281,-0.442504882812
1534593316.130.943359375,-0.391845703125,-0.08642578125,1.57165527344,0.617980957031,-0.343322753906
1534593316.130.9404296875,-0.389892578125,-0.084228515625,1.32751464844,0.67138671875,-0.396728515625
1534593316.140.93994140625,-0.390625,-0.08642578125,1.29699707031,0.572204589844,-0.442504882812
1534593316.140.94287109375,-0.3974609375,-0.088134765625,1.42669677734,0.411987304688,-0.297546386719
1534593316.140.938720703125,-0.393798828125,-0.082763671875,1.61743164062,0.495910644531,-0.404357910156
1534593316.140.93994140625,-0.392822265625,-0.0849609375,1.66320800781,0.778198242188,-0.267028808594
1534593316.150.94091796875,-0.389404296875,-0.08935546875,1.64794921875,0.564575195312,-0.534057617188
1534593316.150.939453125,-0.390380859375,-0.08984375,1.49536132812,0.411987304688,-0.602722167969
1534593316.150.937744140625,-0.3916015625,-0.0859375,1.42669677734,0.48828125,-0.434875488281
1534593316.150.942626953125,-0.394287109375,-0.084716796875,1.56402587891,0.579833984375,-0.289916992188
1534593316.150.94140625,-0.394287109375,-0.080078125,1.5869140625,0.48828125,-0.0991821289062
1534593316.150.940673828125,-0.3935546875,-0.078857421875,1.55639648438,0.67138671875,-0.0839233398438
1534593316.160.937255859375,-0.39013671875,-0.091796875,1.57928466797,0.503540039062,-0.572204589844
1534593316.160.9423828125,-0.394287109375,-0.0830078125,1.44195556641,0.656127929688,-0.54931640625
1534593316.160.9404296875,-0.394287109375,-0.08935546875,1.30462646484,0.579833984375,-0.358581542969
1534593316.160.941162109375,-0.39208984375,-0.085693359375,1.63269042969,0.495910644531,-0.328063964844
1534593316.160.9404296875,-0.3896484375,-0.080322265625,1.67083740234,0.434875488281,-0.495910644531
1534593316.160.940185546875,-0.38818359375,-0.08203125,1.66320800781,0.350952148438,-0.267028808594
1534593316.160.941162109375,-0.39208984375,-0.08154296875,1.35040283203,0.633239746094,-0.259399414062
1534593316.170.942138671875,-0.392333984375,-0.08056640625,1.38854980469,0.633239746094,-0.457763671875
1534593316.170.9375,-0.39013671875,-0.085693359375,1.56402587891,0.648498535156,-0.419616699219
1534593316.170.941650390625,-0.3955078125,-0.0830078125,1.56402587891,0.6103515625,-0.411987304688
1534593316.170.9384765625,-0.39453125,-0.08349609375,1.28936767578,0.694274902344,-0.473022460938
1534593316.180.9375,-0.39208984375,-0.082275390625,1.19018554688,0.541687011719,-0.656127929688
1534593316.180.936279296875,-0.39111328125,-0.085693359375,1.66320800781,0.625610351562,-0.541687011719
1534593316.180.938232421875,-0.391845703125,-0.0859375,1.50299072266,0.495910644531,-0.480651855469
1534593316.180.9384765625,-0.391845703125,-0.08642578125,1.30462646484,0.473022460938,-0.465393066406
1534593316.180.9404296875,-0.391357421875,-0.086181640625,1.28936767578,0.556945800781,-0.48828125
1534593316.180.94091796875,-0.39013671875,-0.085205078125,1.55639648438,0.48828125,-0.396728515625
1534593316.180.939697265625,-0.39453125,-0.08154296875,1.56402587891,0.167846679688,-0.396728515625
1534593316.180.9404296875,-0.3955078125,-0.0810546875,1.50299072266,0.480651855469,-0.396728515625
1534593316.190.94140625,-0.392333984375,-0.084716796875,1.51824951172,0.648498535156,-0.343322753906
1534593316.190.9404296875,-0.390869140625,-0.081787109375,1.66320800781,0.617980957031,-0.343322753906
1534593316.190.93896484375,-0.38916015625,-0.082275390625,1.42669677734,0.686645507812,-0.343322753906
1534593316.190.939453125,-0.395263671875,-0.0908203125,1.16729736328,0.694274902344,-0.640869140625
1534593316.190.939453125,-0.395263671875,-0.0908203125,1.30462646484,0.541687011719,-0.778198242188
1534593316.190.937255859375,-0.390625,-0.089599609375,1.51062011719,0.244140625,-0.572204589844
1534593316.190.93701171875,-0.390869140625,-0.08740234375,1.60217285156,0.42724609375,-0.473022460938
1534593316.190.93701171875,-0.390869140625,-0.08740234375,1.45721435547,0.709533691406,-0.404357910156
1534593316.20.938720703125,-0.3916015625,-0.084716796875,1.33514404297,0.564575195312,-0.190734863281
1534593316.20.93994140625,-0.39208984375,-0.0830078125,1.50299072266,0.297546386719,-0.343322753906
1534593316.20.938720703125,-0.39599609375,-0.08203125,1.44958496094,0.312805175781,-0.48828125
1534593316.20.9384765625,-0.392822265625,-0.082763671875,1.46484375,0.350952148438,-0.42724609375
1534593316.20.93896484375,-0.3896484375,-0.085693359375,1.44958496094,0.42724609375,-0.205993652344
1534593316.20.940673828125,-0.392578125,-0.084716796875,1.30462646484,0.54931640625,-0.190734863281
1534593316.20.94140625,-0.392578125,-0.08203125,1.31225585938,0.602722167969,-0.404357910156
1534593316.20.93994140625,-0.393798828125,-0.083251953125,1.84631347656,0.617980957031,-0.495910644531
1534593316.20.936767578125,-0.3935546875,-0.084716796875,1.72424316406,0.648498535156,-0.511169433594
1534593316.210.936279296875,-0.39306640625,-0.08349609375,1.45721435547,0.54931640625,-0.564575195312
1534593316.210.938720703125,-0.392822265625,-0.07861328125,1.33514404297,0.450134277344,-0.663757324219
1534593316.210.93896484375,-0.39013671875,-0.083740234375,1.40380859375,0.572204589844,-0.656127929688
1534593316.210.939697265625,-0.390869140625,-0.08984375,1.50299072266,0.656127929688,-0.282287597656
1534593316.210.937744140625,-0.3896484375,-0.083984375,1.59454345703,0.480651855469,-0.328063964844
1534593316.210.93701171875,-0.388427734375,-0.08154296875,1.54113769531,0.442504882812,-0.389099121094
1534593316.210.9365234375,-0.393310546875,-0.078857421875,1.24359130859,0.640869140625,-0.534057617188
1534593316.210.9345703125,-0.39208984375,-0.084228515625,1.21307373047,0.511169433594,-0.404357910156
1534593316.210.937744140625,-0.39013671875,-0.088623046875,1.31988525391,0.625610351562,-0.267028808594
1534593316.220.939208984375,-0.390625,-0.084716796875,1.57928466797,0.633239746094,-0.434875488281
1534593316.220.942138671875,-0.3935546875,-0.0849609375,1.47247314453,0.465393066406,-0.640869140625
1534593316.220.9423828125,-0.394287109375,-0.085205078125,1.57928466797,0.6103515625,-0.900268554688
1534593316.220.943359375,-0.3916015625,-0.0830078125,1.65557861328,0.770568847656,-0.823974609375
1534593316.220.94287109375,-0.391357421875,-0.08447265625,1.60217285156,0.579833984375,-0.564575195312
1534593316.220.93798828125,-0.394775390625,-0.085693359375,1.65557861328,0.457763671875,-0.404357910156
1534593316.220.938232421875,-0.393310546875,-0.087646484375,1.72424316406,0.579833984375,-0.320434570312
1534593316.220.9384765625,-0.39306640625,-0.08935546875,1.67846679688,0.518798828125,-0.450134277344
1534593316.220.9384765625,-0.396484375,-0.086181640625,1.52587890625,0.450134277344,-0.617980957031
1534593316.220.941162109375,-0.392822265625,-0.084228515625,1.3427734375,0.595092773438,-0.640869140625
1534593316.220.941162109375,-0.390625,-0.07958984375,1.30462646484,0.564575195312,-0.457763671875
1534593316.230.937255859375,-0.3916015625,-0.080322265625,1.64794921875,0.617980957031,-0.267028808594
1534593316.230.938720703125,-0.3916015625,-0.086181640625,1.75476074219,0.656127929688,-0.205993652344
1534593316.230.941650390625,-0.3916015625,-0.0888671875,1.60980224609,0.518798828125,-0.396728515625
1534593316.230.94091796875,-0.393798828125,-0.092529296875,1.77001953125,0.396728515625,-0.579833984375
1534593316.230.94091796875,-0.395751953125,-0.09228515625,1.67083740234,0.312805175781,-0.473022460938
1534593316.230.93896484375,-0.392578125,-0.082763671875,1.59454345703,0.350952148438,-0.221252441406
1534593316.230.938720703125,-0.390380859375,-0.076416015625,1.60980224609,0.389099121094,-0.289916992188
1534593316.230.94287109375,-0.391357421875,-0.081298828125,1.44195556641,0.724792480469,-0.465393066406
1534593316.230.94091796875,-0.390869140625,-0.085693359375,1.41143798828,0.79345703125,-0.411987304688
1534593316.230.939208984375,-0.3896484375,-0.0849609375,1.50299072266,0.434875488281,-0.450134277344
1534593316.240.943603515625,-0.391845703125,-0.07861328125,1.5869140625,0.350952148438,-0.434875488281
1534593316.240.942626953125,-0.392578125,-0.078857421875,1.71661376953,0.411987304688,-0.686645507812
1534593316.240.9404296875,-0.392333984375,-0.08154296875,1.57928466797,0.419616699219,-0.67138671875
1534593316.240.9404296875,-0.392333984375,-0.08154296875,1.54876708984,0.633239746094,-0.442504882812
1534593316.240.941650390625,-0.393310546875,-0.081298828125,1.44958496094,0.617980957031,-0.350952148438
1534593316.240.94287109375,-0.393310546875,-0.08154296875,1.3427734375,0.381469726562,-0.381469726562
1534593316.240.942626953125,-0.391845703125,-0.078369140625,1.53350830078,0.389099121094,-0.3662109375
1534593316.240.941650390625,-0.391845703125,-0.079833984375,1.70135498047,0.541687011719,-0.274658203125
1534593316.240.940185546875,-0.3955078125,-0.08544921875,1.64794921875,0.709533691406,-0.190734863281
1534593316.240.93994140625,-0.393798828125,-0.08642578125,1.49536132812,0.656127929688,-0.221252441406
1534593316.250.93798828125,-0.390869140625,-0.084228515625,1.43432617188,0.633239746094,-0.259399414062
1534593316.250.93505859375,-0.393310546875,-0.0859375,1.44958496094,0.572204589844,-0.236511230469
1534593316.250.93701171875,-0.390625,-0.0810546875,1.55639648438,0.274658203125,-0.274658203125
1534593316.250.940673828125,-0.38720703125,-0.07958984375,1.62506103516,0.511169433594,-0.1220703125
1534593316.250.94091796875,-0.39111328125,-0.08349609375,1.66320800781,0.648498535156,-0.152587890625
1534593316.250.940673828125,-0.393798828125,-0.083251953125,1.65557861328,0.54931640625,-0.465393066406
1534593316.250.93798828125,-0.394287109375,-0.08349609375,1.28173828125,0.679016113281,-0.457763671875
1534593316.250.9345703125,-0.39306640625,-0.086669921875,1.25885009766,0.656127929688,-0.473022460938
1534593316.250.93603515625,-0.392578125,-0.086181640625,1.50299072266,0.495910644531,-0.465393066406
1534593316.250.938232421875,-0.3935546875,-0.085693359375,1.64031982422,0.434875488281,-0.251770019531
1534593316.260.939453125,-0.392822265625,-0.090576171875,1.40380859375,0.267028808594,-0.335693359375
1534593316.260.939208984375,-0.39453125,-0.08349609375,1.49536132812,0.480651855469,-0.251770019531
1534593316.260.93896484375,-0.39599609375,-0.085205078125,1.54113769531,0.686645507812,-0.282287597656
1534593316.260.93896484375,-0.39306640625,-0.07958984375,1.56402587891,0.572204589844,-0.328063964844
1534593316.260.938232421875,-0.393310546875,-0.07958984375,1.48773193359,0.274658203125,-0.297546386719
1534593316.260.939453125,-0.395263671875,-0.084716796875,1.31988525391,0.244140625,-0.587463378906
1534593316.260.94091796875,-0.395263671875,-0.0908203125,1.29699707031,0.587463378906,-0.633239746094
1534593316.260.938232421875,-0.392822265625,-0.090576171875,1.51824951172,0.595092773438,-0.778198242188
1534593316.270.936279296875,-0.39453125,-0.083251953125,1.56402587891,0.526428222656,-0.358581542969
1534593316.270.938720703125,-0.393310546875,-0.07861328125,1.57165527344,0.381469726562,-0.190734863281
1534593316.270.93896484375,-0.394775390625,-0.0830078125,1.51824951172,0.373840332031,-0.396728515625
1534593316.270.9404296875,-0.394287109375,-0.081787109375,1.51062011719,0.259399414062,-0.511169433594
1534593316.270.93701171875,-0.39013671875,-0.0771484375,1.62506103516,0.465393066406,-0.221252441406
1534593316.270.935302734375,-0.392578125,-0.080078125,1.57928466797,0.762939453125,-0.175476074219
1534593316.270.9365234375,-0.393798828125,-0.083984375,1.43432617188,0.701904296875,-0.282287597656
1534593316.270.9365234375,-0.393798828125,-0.083984375,1.41906738281,0.572204589844,-0.511169433594
1534593316.270.9384765625,-0.39111328125,-0.087890625,1.44958496094,0.595092773438,-0.457763671875
1534593316.270.940673828125,-0.3896484375,-0.08349609375,1.56402587891,0.419616699219,-0.42724609375
1534593316.280.939208984375,-0.39013671875,-0.08056640625,1.52587890625,0.450134277344,-0.526428222656
1534593316.280.938720703125,-0.3916015625,-0.07958984375,1.47247314453,0.801086425781,-0.656127929688
1534593316.280.9384765625,-0.3935546875,-0.077392578125,1.56402587891,0.984191894531,-0.617980957031
1534593316.280.93798828125,-0.3955078125,-0.08447265625,1.64031982422,0.755310058594,-0.717163085938
1534593316.280.9365234375,-0.3955078125,-0.08544921875,1.50299072266,0.228881835938,-0.694274902344
1534593316.280.9345703125,-0.39599609375,-0.08935546875,1.47247314453,0.236511230469,-0.541687011719
1534593316.280.938720703125,-0.396240234375,-0.092041015625,1.36566162109,0.518798828125,-0.419616699219
1534593316.280.943603515625,-0.392822265625,-0.083251953125,1.19781494141,0.656127929688,-0.312805175781
1534593316.280.941650390625,-0.39111328125,-0.080322265625,1.37329101562,0.625610351562,-0.419616699219
1534593316.280.936767578125,-0.392822265625,-0.081298828125,1.60980224609,0.778198242188,-0.511169433594
1534593316.280.938720703125,-0.392333984375,-0.08056640625,1.59454345703,0.511169433594,-0.350952148438
1534593316.290.93994140625,-0.390625,-0.0830078125,1.35803222656,0.450134277344,-0.167846679688
1534593316.290.941162109375,-0.392822265625,-0.078369140625,1.41143798828,0.373840332031,-0.236511230469
1534593316.290.940185546875,-0.393310546875,-0.072021484375,1.708984375,0.411987304688,-0.343322753906
1534593316.290.935546875,-0.39111328125,-0.078369140625,1.64794921875,0.6103515625,-0.282287597656
1534593316.290.93798828125,-0.392822265625,-0.08203125,1.708984375,0.465393066406,-0.434875488281
1534593316.290.938720703125,-0.3916015625,-0.080078125,1.67083740234,0.450134277344,-0.587463378906
1534593316.30.937255859375,-0.389892578125,-0.08544921875,1.57165527344,0.495910644531,-0.518798828125
1534593316.30.93603515625,-0.392578125,-0.08935546875,1.48010253906,0.457763671875,-0.396728515625
1534593316.30.93701171875,-0.390869140625,-0.089599609375,1.48010253906,0.511169433594,-0.42724609375
1534593316.30.936767578125,-0.393310546875,-0.089599609375,1.51824951172,0.419616699219,-0.3662109375
1534593316.310.9384765625,-0.391845703125,-0.081787109375,1.43432617188,0.846862792969,-0.282287597656
1534593316.310.941162109375,-0.39599609375,-0.07666015625,1.55639648438,0.389099121094,-0.717163085938
1534593316.310.9375,-0.3955078125,-0.0810546875,1.77764892578,0.282287597656,-0.556945800781
1534593316.310.93994140625,-0.3974609375,-0.079345703125,1.48010253906,0.42724609375,-0.312805175781
1534593316.310.938232421875,-0.392578125,-0.085693359375,1.32751464844,0.48828125,-0.495910644531
1534593316.310.940673828125,-0.394287109375,-0.084228515625,1.57165527344,0.442504882812,-0.312805175781
1534593316.320.94189453125,-0.39306640625,-0.083740234375,1.80816650391,0.473022460938,-0.320434570312
1534593316.320.938720703125,-0.390625,-0.086181640625,1.33514404297,0.656127929688,-0.42724609375
1534593316.320.93994140625,-0.39453125,-0.086181640625,1.50299072266,0.724792480469,-0.42724609375
1534593316.330.93994140625,-0.3935546875,-0.083984375,1.45721435547,0.6103515625,-0.511169433594
1534593316.330.9404296875,-0.392333984375,-0.087890625,1.35803222656,0.602722167969,-0.358581542969
1534593316.330.941162109375,-0.392822265625,-0.083740234375,1.44195556641,0.6103515625,-0.320434570312
1534593316.330.938720703125,-0.394775390625,-0.08349609375,1.43432617188,0.579833984375,-0.190734863281
1534593316.330.942138671875,-0.39306640625,-0.078369140625,1.51824951172,0.740051269531,-0.267028808594
1534593316.330.94287109375,-0.391845703125,-0.082763671875,1.56402587891,0.625610351562,-0.350952148438
1534593316.330.939453125,-0.392578125,-0.0830078125,1.60980224609,0.534057617188,-0.518798828125
1534593316.330.93359375,-0.392333984375,-0.0849609375,1.48773193359,0.686645507812,-0.54931640625
1534593316.340.936767578125,-0.388427734375,-0.087158203125,1.42669677734,0.617980957031,-0.473022460938
1534593316.340.9423828125,-0.389892578125,-0.083984375,1.29699707031,0.656127929688,-0.328063964844
1534593316.340.940185546875,-0.393310546875,-0.08251953125,1.23596191406,0.701904296875,-0.320434570312
1534593316.340.943603515625,-0.39453125,-0.08203125,1.51062011719,0.617980957031,-0.396728515625
1534593316.340.944580078125,-0.39599609375,-0.080322265625,1.69372558594,0.701904296875,-0.434875488281
1534593316.340.939453125,-0.39306640625,-0.080810546875,1.41906738281,0.42724609375,-0.144958496094
1534593316.340.938720703125,-0.393310546875,-0.0849609375,1.39617919922,0.640869140625,-0.389099121094
1534593316.350.93896484375,-0.393798828125,-0.0810546875,1.43432617188,0.79345703125,-0.411987304688
1534593316.350.93701171875,-0.393798828125,-0.078857421875,1.42669677734,0.648498535156,-0.48828125
1534593316.350.939697265625,-0.394287109375,-0.082275390625,1.70135498047,0.701904296875,-0.373840332031
1534593316.350.940185546875,-0.392333984375,-0.082763671875,1.68609619141,0.617980957031,-0.526428222656
1534593316.350.939208984375,-0.39404296875,-0.08349609375,1.59454345703,0.30517578125,-0.54931640625
1534593316.350.93994140625,-0.396728515625,-0.086669921875,1.63269042969,0.495910644531,-0.503540039062
1534593316.350.939208984375,-0.395751953125,-0.082763671875,1.54113769531,0.724792480469,-0.358581542969
1534593316.350.938720703125,-0.393798828125,-0.082763671875,1.61743164062,0.640869140625,-0.442504882812
1534593316.350.937255859375,-0.39306640625,-0.082275390625,1.69372558594,0.48828125,-0.480651855469
1534593316.350.941162109375,-0.395263671875,-0.080078125,1.59454345703,0.518798828125,-0.282287597656
1534593316.360.9404296875,-0.394775390625,-0.080322265625,1.60980224609,0.701904296875,-0.175476074219
1534593316.360.9365234375,-0.392578125,-0.080322265625,1.50299072266,0.892639160156,-0.389099121094
1534593316.360.939453125,-0.390380859375,-0.081787109375,1.31225585938,0.587463378906,-0.534057617188
1534593316.360.943359375,-0.39306640625,-0.08642578125,1.36566162109,0.495910644531,-0.48828125
1534593316.360.94140625,-0.397705078125,-0.090087890625,1.44195556641,0.595092773438,-0.30517578125
1534593316.360.94140625,-0.39111328125,-0.088134765625,1.57928466797,0.373840332031,-0.480651855469
1534593316.360.939697265625,-0.39306640625,-0.083251953125,1.75476074219,0.282287597656,-0.389099121094
1534593316.360.939697265625,-0.39599609375,-0.083251953125,1.70135498047,0.495910644531,-0.411987304688
1534593316.360.943115234375,-0.393310546875,-0.085205078125,1.53350830078,0.717163085938,-0.42724609375
1534593316.370.94384765625,-0.3916015625,-0.08349609375,1.54876708984,0.572204589844,-0.350952148438
1534593316.370.94140625,-0.392822265625,-0.083984375,1.48010253906,0.511169433594,-0.358581542969
1534593316.370.9384765625,-0.391357421875,-0.07861328125,1.74713134766,0.495910644531,-0.564575195312
1534593316.370.942138671875,-0.392822265625,-0.087646484375,1.59454345703,0.617980957031,-0.48828125
1534593316.370.944580078125,-0.393798828125,-0.081787109375,1.42669677734,0.541687011719,-0.404357910156
1534593316.370.94140625,-0.3955078125,-0.080810546875,1.52587890625,0.762939453125,-0.343322753906
1534593316.370.93994140625,-0.395263671875,-0.0810546875,1.60217285156,0.717163085938,-0.419616699219
1534593316.370.943359375,-0.393798828125,-0.082275390625,1.69372558594,0.328063964844,-0.343322753906
1534593316.380.939697265625,-0.393798828125,-0.0849609375,1.73950195312,0.419616699219,-0.312805175781
1534593316.380.93896484375,-0.394775390625,-0.0869140625,1.57928466797,0.79345703125,-0.244140625
1534593316.380.940185546875,-0.3935546875,-0.086181640625,1.43432617188,0.541687011719,-0.534057617188
1534593316.380.93994140625,-0.390869140625,-0.086669921875,1.44958496094,0.381469726562,-0.541687011719
1534593316.380.938720703125,-0.3935546875,-0.090087890625,1.36566162109,0.617980957031,-0.411987304688
1534593316.380.937255859375,-0.397216796875,-0.086181640625,1.65557861328,0.709533691406,-0.556945800781
1534593316.380.938720703125,-0.392822265625,-0.0849609375,1.708984375,0.663757324219,-0.717163085938
1534593316.380.94287109375,-0.391845703125,-0.086181640625,1.71661376953,0.411987304688,-0.625610351562
1534593316.380.94384765625,-0.39453125,-0.0859375,1.45721435547,0.526428222656,-0.465393066406
1534593316.380.9404296875,-0.393798828125,-0.088134765625,1.31988525391,0.862121582031,-0.30517578125
1534593316.390.94189453125,-0.394775390625,-0.087890625,1.44958496094,0.79345703125,-0.289916992188
1534593316.390.941650390625,-0.393310546875,-0.082275390625,1.36566162109,0.411987304688,-0.221252441406
1534593316.390.941650390625,-0.393310546875,-0.082275390625,1.18255615234,0.335693359375,-0.0991821289062
1534593316.390.939453125,-0.392822265625,-0.079833984375,1.36566162109,0.625610351562,-0.457763671875
1534593316.390.940185546875,-0.39404296875,-0.08203125,1.53350830078,0.572204589844,-0.663757324219
1534593316.390.942626953125,-0.390869140625,-0.089111328125,1.69372558594,0.564575195312,-0.556945800781
1534593316.390.941650390625,-0.390625,-0.089599609375,1.73950195312,0.495910644531,-0.30517578125
1534593316.390.93798828125,-0.39111328125,-0.0791015625,1.5869140625,0.442504882812,-0.259399414062
1534593316.390.938232421875,-0.394287109375,-0.080322265625,1.65557861328,0.572204589844,-0.450134277344
1534593316.390.9404296875,-0.395751953125,-0.08447265625,1.64031982422,0.602722167969,-0.617980957031
1534593316.40.938232421875,-0.392333984375,-0.082275390625,1.49536132812,0.587463378906,-0.579833984375
1534593316.40.93896484375,-0.39111328125,-0.0849609375,1.48773193359,0.442504882812,-0.503540039062
1534593316.40.9443359375,-0.396240234375,-0.086181640625,1.48773193359,0.564575195312,-0.679016113281
1534593316.40.94287109375,-0.399169921875,-0.08154296875,1.45721435547,0.732421875,-0.572204589844
1534593316.40.939208984375,-0.39697265625,-0.081298828125,1.62506103516,0.579833984375,-0.450134277344
1534593316.40.938720703125,-0.395263671875,-0.0859375,1.79290771484,0.404357910156,-0.42724609375
1534593316.40.941162109375,-0.392578125,-0.08837890625,1.67083740234,0.587463378906,-0.595092773438
1534593316.40.940185546875,-0.392822265625,-0.089599609375,1.36566162109,0.564575195312,-0.419616699219
1534593316.40.9384765625,-0.391357421875,-0.089599609375,1.18255615234,0.6103515625,-0.259399414062
1534593316.40.943115234375,-0.3935546875,-0.085693359375,1.35040283203,0.755310058594,-0.54931640625
1534593316.410.9453125,-0.395751953125,-0.083251953125,1.54113769531,0.724792480469,-0.625610351562
1534593316.410.940185546875,-0.394287109375,-0.08349609375,1.708984375,0.450134277344,-0.335693359375
1534593316.410.935791015625,-0.39453125,-0.08349609375,1.55639648438,0.617980957031,-0.297546386719
1534593316.410.9365234375,-0.393798828125,-0.085693359375,1.44195556641,0.679016113281,-0.389099121094
1534593316.410.939453125,-0.391357421875,-0.0849609375,1.48010253906,0.694274902344,-0.48828125
1534593316.410.939208984375,-0.393310546875,-0.08447265625,1.66320800781,0.617980957031,-0.518798828125
1534593316.410.93896484375,-0.3974609375,-0.088623046875,1.86920166016,0.434875488281,-0.526428222656
1534593316.410.942138671875,-0.395751953125,-0.0830078125,1.61743164062,0.556945800781,-0.251770019531
1534593316.410.94482421875,-0.392333984375,-0.08349609375,1.53350830078,0.625610351562,-0.0686645507812
1534593316.410.943603515625,-0.39208984375,-0.0869140625,1.51062011719,0.79345703125,-0.297546386719
1534593316.420.940673828125,-0.391357421875,-0.082275390625,1.44195556641,0.839233398438,-0.572204589844
1534593316.420.939453125,-0.391845703125,-0.083984375,1.31988525391,0.747680664062,-0.602722167969
1534593316.420.937255859375,-0.393310546875,-0.086669921875,1.44195556641,0.564575195312,-0.419616699219
1534593316.420.9384765625,-0.392822265625,-0.087158203125,1.63269042969,0.556945800781,-0.274658203125
1534593316.420.938720703125,-0.39111328125,-0.0888671875,1.77764892578,0.480651855469,-0.244140625
1534593316.420.93896484375,-0.39013671875,-0.085205078125,1.70135498047,0.457763671875,-0.457763671875
1534593316.420.9404296875,-0.394287109375,-0.08154296875,1.61743164062,0.534057617188,-0.556945800781
1534593316.420.939697265625,-0.39404296875,-0.08642578125,1.77001953125,0.617980957031,-0.564575195312
1534593316.420.938232421875,-0.3916015625,-0.08642578125,1.708984375,0.617980957031,-0.564575195312
1534593316.420.9375,-0.3935546875,-0.081298828125,1.57928466797,0.6103515625,-0.6103515625
1534593316.420.937255859375,-0.39501953125,-0.081787109375,1.28936767578,0.511169433594,-0.473022460938
1534593316.430.938232421875,-0.394287109375,-0.0810546875,1.32751464844,0.495910644531,-0.198364257812
1534593316.430.9375,-0.39111328125,-0.083251953125,1.77764892578,0.511169433594,-0.274658203125
1534593316.430.93310546875,-0.392333984375,-0.08740234375,1.89208984375,0.640869140625,-0.312805175781
1534593316.430.9326171875,-0.3955078125,-0.087890625,1.73187255859,0.717163085938,-0.328063964844
1534593316.430.939208984375,-0.394775390625,-0.086181640625,1.44958496094,0.617980957031,-0.282287597656
1534593316.430.942626953125,-0.39208984375,-0.087646484375,1.31988525391,0.396728515625,-0.411987304688
1534593316.430.94091796875,-0.391357421875,-0.091796875,1.41906738281,0.274658203125,-0.656127929688
1534593316.430.9404296875,-0.39306640625,-0.091064453125,1.57165527344,0.633239746094,-0.54931640625
1534593316.430.93896484375,-0.390625,-0.0859375,1.54876708984,0.679016113281,-0.450134277344
1534593316.440.939208984375,-0.392333984375,-0.087890625,1.53350830078,0.595092773438,-0.473022460938
1534593316.440.94091796875,-0.392578125,-0.085693359375,1.52587890625,0.42724609375,-0.54931640625
1534593316.440.938720703125,-0.394287109375,-0.08837890625,1.49536132812,0.381469726562,-0.67138671875
1534593316.440.938720703125,-0.394287109375,-0.08837890625,1.51824951172,0.54931640625,-0.572204589844
1534593316.440.940185546875,-0.39501953125,-0.089599609375,1.41906738281,0.617980957031,-0.617980957031
1534593316.440.941162109375,-0.389892578125,-0.083984375,1.42669677734,0.663757324219,-0.556945800781
1534593316.450.944580078125,-0.392578125,-0.0849609375,1.5869140625,0.755310058594,-0.503540039062
1534593316.450.93701171875,-0.393310546875,-0.087158203125,1.57165527344,0.18310546875,-0.54931640625
1534593316.450.9384765625,-0.39501953125,-0.087890625,1.45721435547,0.556945800781,-0.389099121094
1534593316.450.940673828125,-0.39111328125,-0.08544921875,1.61743164062,0.526428222656,-0.389099121094
1534593316.460.935302734375,-0.390869140625,-0.083984375,1.39617919922,0.625610351562,-0.282287597656
1534593316.460.9384765625,-0.3935546875,-0.08154296875,1.44958496094,0.823974609375,-0.450134277344
1534593316.460.93701171875,-0.391845703125,-0.088134765625,1.48773193359,0.373840332031,-0.450134277344
1534593316.460.9384765625,-0.39404296875,-0.08935546875,1.22833251953,0.503540039062,-0.48828125
1534593316.460.937744140625,-0.392822265625,-0.087646484375,1.35040283203,0.663757324219,-0.381469726562
1534593316.460.939453125,-0.39306640625,-0.085205078125,1.64031982422,0.595092773438,-0.18310546875
1534593316.470.940185546875,-0.39501953125,-0.082763671875,1.60217285156,0.633239746094,-0.457763671875
1534593316.470.940673828125,-0.39404296875,-0.084716796875,1.40380859375,0.595092773438,-0.526428222656
1534593316.470.940673828125,-0.39013671875,-0.087158203125,1.30462646484,0.297546386719,-0.518798828125
1534593316.470.940673828125,-0.396240234375,-0.08447265625,1.31225585938,0.473022460938,-0.48828125
1534593316.470.9443359375,-0.39501953125,-0.08349609375,1.51062011719,0.526428222656,-0.556945800781
1534593316.470.943115234375,-0.393798828125,-0.08154296875,1.52587890625,0.579833984375,-0.373840332031
1534593316.480.940185546875,-0.39404296875,-0.080078125,1.52587890625,0.686645507812,-0.457763671875
1534593316.480.939697265625,-0.392333984375,-0.0751953125,1.44958496094,0.564575195312,-0.373840332031
1534593316.480.939208984375,-0.394287109375,-0.07958984375,1.54876708984,0.67138671875,-0.198364257812
1534593316.480.9404296875,-0.393310546875,-0.083251953125,1.46484375,0.625610351562,-0.54931640625
1534593316.480.93798828125,-0.389404296875,-0.083984375,1.43432617188,0.18310546875,-0.373840332031
1534593316.480.93701171875,-0.3916015625,-0.086181640625,1.36566162109,0.228881835938,-0.160217285156
1534593316.490.939208984375,-0.396728515625,-0.081787109375,1.41143798828,0.411987304688,-0.442504882812
1534593316.490.93896484375,-0.3935546875,-0.07861328125,1.38092041016,0.457763671875,-0.358581542969
1534593316.490.94140625,-0.392578125,-0.082763671875,1.32751464844,0.640869140625,-0.450134277344
1534593316.490.9423828125,-0.391845703125,-0.087158203125,1.37329101562,0.541687011719,-0.473022460938
1534593316.490.941162109375,-0.392578125,-0.086669921875,1.38092041016,0.350952148438,-0.373840332031
1534593316.490.9375,-0.3984375,-0.083740234375,1.52587890625,0.54931640625,-0.457763671875
1534593316.490.934326171875,-0.40087890625,-0.082275390625,1.55639648438,0.6103515625,-0.617980957031
1534593316.50.939453125,-0.394287109375,-0.08154296875,1.53350830078,0.442504882812,-0.541687011719
1534593316.50.939453125,-0.395751953125,-0.08544921875,1.50299072266,0.518798828125,-0.389099121094
1534593316.50.93603515625,-0.394775390625,-0.084228515625,1.59454345703,0.3662109375,-0.244140625
1534593316.50.935302734375,-0.393310546875,-0.083251953125,1.55639648438,0.564575195312,-0.373840332031
1534593316.50.9384765625,-0.39208984375,-0.0859375,1.46484375,0.602722167969,-0.411987304688
1534593316.50.934814453125,-0.392333984375,-0.086669921875,1.220703125,0.434875488281,-0.495910644531
1534593316.50.935302734375,-0.391357421875,-0.0849609375,1.21307373047,0.526428222656,-0.602722167969
1534593316.50.93994140625,-0.39111328125,-0.08349609375,1.31988525391,0.617980957031,-0.396728515625
1534593316.50.93994140625,-0.39111328125,-0.08349609375,1.39617919922,0.778198242188,-0.404357910156
1534593316.510.94091796875,-0.39697265625,-0.080810546875,1.41906738281,0.556945800781,-0.572204589844
1534593316.510.94189453125,-0.39404296875,-0.0830078125,1.67083740234,0.320434570312,-0.625610351562
1534593316.510.944580078125,-0.391845703125,-0.084228515625,1.57165527344,0.320434570312,-0.717163085938
1534593316.510.939453125,-0.394287109375,-0.086669921875,1.5869140625,0.42724609375,-0.656127929688
1534593316.510.937255859375,-0.394775390625,-0.082275390625,1.45721435547,0.564575195312,-0.465393066406
1534593316.510.938232421875,-0.394287109375,-0.085693359375,1.39617919922,0.526428222656,-0.450134277344
1534593316.510.9365234375,-0.392333984375,-0.082275390625,1.56402587891,0.679016113281,-0.511169433594
1534593316.510.937744140625,-0.396240234375,-0.08203125,1.45721435547,0.495910644531,-0.473022460938
1534593316.520.940673828125,-0.392333984375,-0.08544921875,1.54113769531,0.679016113281,-0.465393066406
1534593316.520.9423828125,-0.392333984375,-0.079345703125,1.54876708984,0.701904296875,-0.373840332031
1534593316.520.941650390625,-0.394775390625,-0.082275390625,1.38092041016,0.778198242188,-0.48828125
1534593316.520.940185546875,-0.3955078125,-0.08447265625,1.5869140625,0.54931640625,-0.541687011719
1534593316.520.9384765625,-0.393310546875,-0.08203125,1.62506103516,0.259399414062,-0.465393066406
1534593316.520.941162109375,-0.3896484375,-0.0849609375,1.64794921875,0.343322753906,-0.6103515625
1534593316.520.939697265625,-0.390380859375,-0.084228515625,1.48010253906,0.511169433594,-0.656127929688
1534593316.520.938720703125,-0.394775390625,-0.08203125,1.46484375,0.602722167969,-0.640869140625
1534593316.520.942138671875,-0.395751953125,-0.0869140625,1.41143798828,0.442504882812,-0.648498535156
1534593316.520.9404296875,-0.3935546875,-0.08544921875,1.44195556641,0.312805175781,-0.274658203125
1534593316.530.936767578125,-0.39404296875,-0.08251953125,1.37329101562,0.3662109375,-0.0762939453125
1534593316.530.938720703125,-0.39306640625,-0.083740234375,1.51062011719,0.518798828125,-0.381469726562
1534593316.530.94091796875,-0.390380859375,-0.082763671875,1.51824951172,0.54931640625,-0.572204589844
1534593316.530.9384765625,-0.391357421875,-0.079345703125,1.41906738281,0.480651855469,-0.595092773438
1534593316.530.938720703125,-0.390869140625,-0.079833984375,1.57165527344,0.473022460938,-0.572204589844
1534593316.530.93701171875,-0.391357421875,-0.08154296875,1.60980224609,0.663757324219,-0.473022460938
1534593316.530.9365234375,-0.393310546875,-0.080810546875,1.64794921875,0.930786132812,-0.274658203125
1534593316.530.93896484375,-0.39453125,-0.08154296875,1.50299072266,0.831604003906,-0.137329101562
1534593316.530.936767578125,-0.392578125,-0.082275390625,1.48010253906,0.724792480469,-0.282287597656
1534593316.530.93798828125,-0.39404296875,-0.08349609375,1.54113769531,0.587463378906,-0.396728515625
1534593316.530.94140625,-0.3974609375,-0.083740234375,1.53350830078,0.465393066406,-0.503540039062
1534593316.540.941162109375,-0.396240234375,-0.080078125,1.55639648438,0.648498535156,-0.381469726562
1534593316.540.938720703125,-0.396728515625,-0.080078125,1.708984375,0.656127929688,-0.267028808594
1534593316.540.937744140625,-0.393798828125,-0.0791015625,1.708984375,0.694274902344,-0.335693359375
1534593316.540.937744140625,-0.393798828125,-0.0791015625,1.67846679688,0.648498535156,-0.411987304688
1534593316.540.939697265625,-0.392822265625,-0.081298828125,1.60217285156,0.6103515625,-0.511169433594
1534593316.540.940673828125,-0.395263671875,-0.0849609375,1.45721435547,0.724792480469,-0.419616699219
1534593316.540.943115234375,-0.3955078125,-0.082763671875,1.54876708984,0.778198242188,-0.274658203125
1534593316.540.94482421875,-0.39453125,-0.089599609375,1.61743164062,0.740051269531,-0.274658203125
1534593316.540.943359375,-0.39404296875,-0.088623046875,1.49536132812,0.816345214844,-0.404357910156
1534593316.540.93896484375,-0.393310546875,-0.079345703125,1.31225585938,0.602722167969,-0.404357910156
1534593316.550.935791015625,-0.3916015625,-0.083740234375,1.36566162109,0.602722167969,-0.450134277344
1534593316.550.937255859375,-0.39404296875,-0.085205078125,1.38854980469,0.701904296875,-0.312805175781
1534593316.550.937744140625,-0.3935546875,-0.084228515625,1.28173828125,0.778198242188,-0.320434570312
1534593316.550.9404296875,-0.392333984375,-0.085205078125,1.47247314453,0.54931640625,-0.442504882812
1534593316.550.94091796875,-0.392333984375,-0.080810546875,1.46484375,0.48828125,-0.404357910156
1534593316.550.93994140625,-0.38818359375,-0.083984375,1.41906738281,0.350952148438,-0.473022460938
1534593316.550.941162109375,-0.388916015625,-0.08740234375,1.48010253906,0.534057617188,-0.648498535156
1534593316.550.93896484375,-0.39013671875,-0.086181640625,1.44195556641,0.48828125,-0.442504882812
1534593316.550.9375,-0.39013671875,-0.0869140625,1.38092041016,0.518798828125,-0.236511230469
1534593316.550.939697265625,-0.39501953125,-0.087646484375,1.30462646484,0.67138671875,-0.152587890625
1534593316.560.9404296875,-0.3984375,-0.08984375,1.44958496094,0.602722167969,-0.358581542969
1534593316.560.9404296875,-0.399169921875,-0.09033203125,1.64031982422,0.350952148438,-0.465393066406
1534593316.560.939208984375,-0.39599609375,-0.087646484375,1.59454345703,0.434875488281,-0.617980957031
1534593316.560.934326171875,-0.39453125,-0.085693359375,1.36566162109,0.595092773438,-0.404357910156
1534593316.560.9365234375,-0.393798828125,-0.0830078125,1.47247314453,0.587463378906,-0.343322753906
1534593316.560.942138671875,-0.39208984375,-0.081298828125,1.62506103516,0.602722167969,-0.556945800781
1534593316.560.94140625,-0.391845703125,-0.08203125,1.83868408203,0.579833984375,-0.42724609375
1534593316.560.9404296875,-0.390625,-0.085205078125,1.90734863281,0.625610351562,-0.411987304688
1534593316.560.93994140625,-0.392333984375,-0.087890625,1.69372558594,0.656127929688,-0.442504882812
1534593316.560.9404296875,-0.392578125,-0.08837890625,1.38854980469,0.572204589844,-0.602722167969
1534593316.570.94189453125,-0.39208984375,-0.0859375,1.23596191406,0.556945800781,-0.587463378906
1534593316.570.943359375,-0.39208984375,-0.082275390625,1.3427734375,0.686645507812,-0.724792480469
1534593316.570.944580078125,-0.395263671875,-0.086181640625,1.54876708984,0.572204589844,-0.679016113281
1534593316.570.941650390625,-0.396240234375,-0.0888671875,1.53350830078,0.297546386719,-0.450134277344
1534593316.570.938720703125,-0.39501953125,-0.085205078125,1.54876708984,0.350952148438,-0.244140625
1534593316.570.935302734375,-0.395751953125,-0.085205078125,1.38092041016,0.503540039062,-0.320434570312
1534593316.570.936767578125,-0.393798828125,-0.08642578125,1.33514404297,0.541687011719,-0.228881835938
1534593316.570.940185546875,-0.392578125,-0.086669921875,1.57165527344,0.709533691406,-0.175476074219
1534593316.570.93896484375,-0.394287109375,-0.086181640625,1.60980224609,0.946044921875,-0.396728515625
1534593316.570.9384765625,-0.39794921875,-0.086669921875,1.61743164062,0.717163085938,-0.595092773438
1534593316.580.939208984375,-0.39892578125,-0.088134765625,1.50299072266,0.625610351562,-0.473022460938
1534593316.580.93701171875,-0.397216796875,-0.087890625,1.51062011719,0.602722167969,-0.221252441406
1534593316.580.9375,-0.3955078125,-0.089111328125,1.44958496094,0.724792480469,-0.244140625
1534593316.580.938720703125,-0.3974609375,-0.088623046875,1.45721435547,0.503540039062,-0.411987304688
1534593316.580.9404296875,-0.398681640625,-0.085205078125,1.48010253906,0.54931640625,-0.274658203125
1534593316.580.942138671875,-0.3955078125,-0.0830078125,1.51062011719,0.54931640625,-0.244140625
1534593316.580.939697265625,-0.396728515625,-0.08447265625,1.45721435547,0.579833984375,-0.205993652344
1534593316.580.93798828125,-0.39501953125,-0.0888671875,1.46484375,0.541687011719,-0.167846679688
1534593316.580.9375,-0.39453125,-0.08935546875,1.5869140625,0.762939453125,-0.18310546875
1534593316.580.937744140625,-0.395263671875,-0.0849609375,1.60980224609,0.67138671875,-0.114440917969
1534593316.590.934326171875,-0.392578125,-0.0849609375,1.47247314453,0.518798828125,-0.389099121094
1534593316.590.935302734375,-0.39453125,-0.084228515625,1.82342529297,0.511169433594,-0.404357910156
1534593316.590.9404296875,-0.399169921875,-0.079833984375,1.94549560547,0.404357910156,-0.282287597656
1534593316.590.939697265625,-0.40087890625,-0.080810546875,1.66320800781,0.335693359375,-0.267028808594
1534593316.590.937255859375,-0.396240234375,-0.085205078125,1.55639648438,0.358581542969,-0.221252441406
1534593316.590.93798828125,-0.390380859375,-0.0869140625,1.59454345703,0.579833984375,-0.251770019531
1534593316.590.940185546875,-0.391357421875,-0.086181640625,1.63269042969,0.602722167969,-0.18310546875
1534593316.590.939453125,-0.394287109375,-0.084228515625,1.48773193359,0.503540039062,-0.152587890625
1534593316.590.93994140625,-0.393798828125,-0.085205078125,1.51824951172,0.511169433594,-0.228881835938
1534593316.590.9404296875,-0.3935546875,-0.08642578125,1.68609619141,0.343322753906,-0.457763671875
1534593316.60.937255859375,-0.393310546875,-0.08349609375,1.87683105469,0.244140625,-0.389099121094
1534593316.60.9384765625,-0.39208984375,-0.080810546875,1.63269042969,0.495910644531,-0.274658203125
1534593316.60.942626953125,-0.390380859375,-0.08154296875,1.50299072266,0.419616699219,-0.495910644531
1534593316.610.940673828125,-0.396728515625,-0.080078125,1.81579589844,0.633239746094,-0.54931640625
1534593316.610.9384765625,-0.397705078125,-0.08447265625,1.75476074219,0.579833984375,-0.442504882812
1534593316.610.9404296875,-0.38818359375,-0.08544921875,1.48773193359,0.473022460938,-0.389099121094
1534593316.610.9384765625,-0.387939453125,-0.084716796875,1.73187255859,0.419616699219,-0.358581542969
1534593316.610.938720703125,-0.390625,-0.086669921875,1.57165527344,0.54931640625,-0.389099121094
1534593316.610.94140625,-0.39111328125,-0.08349609375,1.54876708984,0.541687011719,-0.419616699219
1534593316.620.937744140625,-0.39208984375,-0.087158203125,1.64794921875,0.587463378906,-0.282287597656
1534593316.620.937744140625,-0.392822265625,-0.081787109375,1.3427734375,0.457763671875,-0.42724609375
1534593316.620.93896484375,-0.394775390625,-0.083740234375,1.41906738281,0.633239746094,-0.373840332031
1534593316.620.939453125,-0.397705078125,-0.088134765625,1.47247314453,0.564575195312,-0.465393066406
1534593316.620.9404296875,-0.396728515625,-0.085693359375,1.42669677734,0.572204589844,-0.541687011719
1534593316.620.93994140625,-0.390869140625,-0.090087890625,1.64794921875,0.877380371094,-0.30517578125
1534593316.630.939697265625,-0.391845703125,-0.0869140625,1.47247314453,0.686645507812,-0.404357910156
1534593316.630.941650390625,-0.396728515625,-0.084716796875,1.48773193359,0.633239746094,-0.312805175781
1534593316.630.9384765625,-0.394287109375,-0.083984375,1.59454345703,0.518798828125,-0.205993652344
1534593316.630.9384765625,-0.39501953125,-0.08056640625,1.41143798828,0.434875488281,-0.358581542969
1534593316.630.937744140625,-0.392822265625,-0.08251953125,1.44958496094,0.42724609375,-0.373840332031
1534593316.640.9384765625,-0.392333984375,-0.087890625,1.40380859375,0.556945800781,-0.411987304688
1534593316.640.938720703125,-0.3935546875,-0.086181640625,1.48773193359,0.831604003906,-0.312805175781
1534593316.640.934814453125,-0.390380859375,-0.083251953125,1.47247314453,0.473022460938,-0.274658203125
1534593316.640.93603515625,-0.38720703125,-0.0859375,1.49536132812,0.42724609375,-0.236511230469
1534593316.640.939697265625,-0.396484375,-0.08056640625,1.47247314453,0.381469726562,-0.312805175781
1534593316.650.9404296875,-0.394775390625,-0.082763671875,1.60217285156,0.244140625,-0.3662109375
1534593316.650.941162109375,-0.38916015625,-0.08056640625,1.42669677734,0.42724609375,-0.48828125
1534593316.650.941650390625,-0.39453125,-0.087890625,1.76239013672,0.694274902344,-0.42724609375
1534593316.650.939453125,-0.3994140625,-0.08642578125,1.78527832031,0.686645507812,-0.48828125
1534593316.650.93896484375,-0.397216796875,-0.087890625,1.85394287109,0.534057617188,-0.411987304688
1534593316.650.94091796875,-0.392333984375,-0.083984375,1.59454345703,0.328063964844,-0.373840332031
1534593316.650.941650390625,-0.39306640625,-0.0810546875,1.61743164062,0.381469726562,-0.534057617188
1534593316.650.937744140625,-0.39404296875,-0.080810546875,1.44195556641,0.267028808594,-0.511169433594
1534593316.650.937744140625,-0.3935546875,-0.085205078125,1.20544433594,0.3662109375,-0.358581542969
1534593316.660.94091796875,-0.393310546875,-0.086181640625,1.41906738281,0.617980957031,-0.48828125
1534593316.660.93994140625,-0.39306640625,-0.080322265625,1.708984375,0.67138671875,-0.602722167969
1534593316.660.94384765625,-0.396484375,-0.07861328125,1.47247314453,0.526428222656,-0.686645507812
1534593316.660.941162109375,-0.392578125,-0.0908203125,1.45721435547,0.411987304688,-0.434875488281
1534593316.660.94287109375,-0.39404296875,-0.0849609375,1.51824951172,0.663757324219,-0.640869140625
1534593316.660.941650390625,-0.39208984375,-0.0830078125,1.45721435547,0.701904296875,-0.663757324219
1534593316.660.9453125,-0.391845703125,-0.08642578125,1.54876708984,0.625610351562,-0.42724609375
1534593316.660.946533203125,-0.39599609375,-0.087890625,1.54876708984,0.724792480469,-0.450134277344
1534593316.670.940185546875,-0.3955078125,-0.087158203125,1.59454345703,0.770568847656,-0.404357910156
1534593316.670.938720703125,-0.395751953125,-0.088134765625,1.56402587891,0.633239746094,-0.312805175781
1534593316.670.939697265625,-0.396484375,-0.089111328125,1.54113769531,0.343322753906,-0.473022460938
1534593316.670.9404296875,-0.3935546875,-0.09033203125,1.35040283203,0.404357910156,-0.747680664062
1534593316.670.943115234375,-0.393310546875,-0.091064453125,1.37329101562,0.450134277344,-0.79345703125
