CSV format: Accelerometer x value, acclerometer y value, accelerometer z value, gyroscope x value, gyroscope y value, gyroscope z value
Sample frequency: 100Hz
1534599891.080.964599609375,-0.336181640625,0.04345703125,1,1,1
1534599891.080.965576171875,-0.338623046875,0.04638671875,1,1,1
1534599891.080.961181640625,-0.33935546875,0.049072265625,1,1,1
1534599891.090.961181640625,-0.33935546875,0.049072265625,1,1,1
1534599891.090.959716796875,-0.33935546875,0.0458984375,1,1,1
1534599891.090.965087890625,-0.3369140625,0.04638671875,1,1,1
1534599891.090.965087890625,-0.3369140625,0.04638671875,1,1,1
1534599891.090.9677734375,-0.333251953125,0.048583984375,1,1,1
1534599891.090.96484375,-0.336181640625,0.050537109375,1,1,1
1534599891.090.96484375,-0.336181640625,0.050537109375,1,1,1
1534599891.090.9658203125,-0.336669921875,0.049560546875,1,1,1
1534599891.090.9658203125,-0.336669921875,0.049560546875,1,1,1
1534599891.090.96875,-0.334716796875,0.04931640625,1,1,1
1534599891.090.966552734375,-0.334716796875,0.052001953125,1,1,1
1534599891.090.962890625,-0.33349609375,0.050537109375,1,1,1
1534599891.090.9658203125,-0.333984375,0.050048828125,1,1,1
1534599891.10.969970703125,-0.3349609375,0.05419921875,1,1,1
1534599891.10.969970703125,-0.3349609375,0.05419921875,1,1,1
1534599891.10.96728515625,-0.334716796875,0.055908203125,1,1,1
1534599891.10.967041015625,-0.33837890625,0.05126953125,1,1,1
1534599891.10.967041015625,-0.33837890625,0.05126953125,1,1,1
1534599891.10.96240234375,-0.33837890625,0.0498046875,1,1,1
1534599891.10.9609375,-0.33642578125,0.049560546875,1,1,1
1534599891.10.965087890625,-0.336181640625,0.046630859375,1,1,1
1534599891.10.965576171875,-0.33544921875,0.048095703125,1,1,1
1534599891.10.963623046875,-0.33642578125,0.047607421875,1,1,1
1534599891.10.964111328125,-0.33544921875,0.046630859375,1,1,1
1534599891.110.96923828125,-0.3369140625,0.049072265625,1,1,1
1534599891.110.96923828125,-0.3369140625,0.049072265625,1,1,1
1534599891.110.970703125,-0.3369140625,0.047119140625,1,1,1
1534599891.110.970703125,-0.3369140625,0.047119140625,1,1,1
1534599891.110.96630859375,-0.336181640625,0.046875,1,1,1
1534599891.110.96630859375,-0.336181640625,0.046875,1,1,1
1534599891.110.966064453125,-0.336669921875,0.049560546875,1,1,1
1534599891.110.966064453125,-0.336669921875,0.049560546875,1,1,1
1534599891.110.965576171875,-0.3349609375,0.046142578125,1,1,1
1534599891.110.962890625,-0.333251953125,0.0458984375,1,1,1
1534599891.110.962890625,-0.335693359375,0.048583984375,1,1,1
1534599891.110.965576171875,-0.34033203125,0.04931640625,1,1,1
1534599891.120.96826171875,-0.333251953125,0.05078125,1,1,1
1534599891.120.96728515625,-0.33642578125,0.051025390625,1,1,1
1534599891.120.96728515625,-0.33642578125,0.051025390625,1,1,1
1534599891.120.966552734375,-0.336669921875,0.05078125,1,1,1
1534599891.120.966552734375,-0.336669921875,0.05078125,1,1,1
1534599891.120.967041015625,-0.3349609375,0.04833984375,1,1,1
1534599891.120.967041015625,-0.3349609375,0.04833984375,1,1,1
1534599891.120.96533203125,-0.33642578125,0.050537109375,1,1,1
1534599891.120.96533203125,-0.33642578125,0.050537109375,1,1,1
1534599891.120.96533203125,-0.335693359375,0.051513671875,1,1,1
1534599891.120.96533203125,-0.335693359375,0.051513671875,1,1,1
1534599891.120.966796875,-0.3359375,0.047607421875,1,1,1
1534599891.120.966796875,-0.3359375,0.047607421875,1,1,1
1534599891.120.96826171875,-0.336669921875,0.04736328125,1,1,1
1534599891.120.96826171875,-0.336669921875,0.04736328125,1,1,1
1534599891.120.966796875,-0.3349609375,0.050537109375,1,1,1
1534599891.120.966796875,-0.3349609375,0.050537109375,1,1,1
1534599891.120.967041015625,-0.333984375,0.052490234375,1,1,1
1534599891.120.967041015625,-0.333984375,0.052490234375,1,1,1
1534599891.130.97021484375,-0.3359375,0.052978515625,1,1,1
1534599891.130.97021484375,-0.3359375,0.052978515625,1,1,1
1534599891.130.96923828125,-0.33837890625,0.052978515625,1,1,1
1534599891.130.96923828125,-0.33837890625,0.052978515625,1,1,1
1534599891.130.966796875,-0.338134765625,0.048828125,1,1,1
1534599891.130.966796875,-0.338134765625,0.048828125,1,1,1
1534599891.130.966796875,-0.340087890625,0.04833984375,1,1,1
1534599891.130.968505859375,-0.340087890625,0.0546875,1,1,1
1534599891.130.968505859375,-0.340087890625,0.0546875,1,1,1
1534599891.130.96630859375,-0.33740234375,0.054931640625,1,1,1
1534599891.130.96630859375,-0.33740234375,0.054931640625,1,1,1
1534599891.130.964599609375,-0.33837890625,0.049560546875,1,1,1
1534599891.130.964599609375,-0.33837890625,0.049560546875,1,1,1
1534599891.130.96533203125,-0.3388671875,0.049560546875,1,1,1
1534599891.130.96533203125,-0.3388671875,0.049560546875,1,1,1
1534599891.130.96484375,-0.339111328125,0.05322265625,1,1,1
1534599891.130.96484375,-0.339111328125,0.05322265625,1,1,1
1534599891.130.963623046875,-0.33837890625,0.052490234375,1,1,1
1534599891.130.963623046875,-0.33837890625,0.052490234375,1,1,1
1534599891.140.96435546875,-0.334228515625,0.052001953125,1,1,1
1534599891.140.96435546875,-0.334228515625,0.052001953125,1,1,1
1534599891.140.96435546875,-0.33642578125,0.04833984375,1,1,1
1534599891.140.96435546875,-0.33642578125,0.04833984375,1,1,1
1534599891.140.9638671875,-0.339599609375,0.0439453125,1,1,1
1534599891.140.9638671875,-0.339599609375,0.0439453125,1,1,1
1534599891.140.965087890625,-0.338623046875,0.053466796875,1,1,1
1534599891.140.965087890625,-0.338623046875,0.053466796875,1,1,1
1534599891.140.967041015625,-0.340576171875,0.055908203125,1,1,1
1534599891.140.967041015625,-0.340576171875,0.055908203125,1,1,1
1534599891.140.966064453125,-0.341552734375,0.049560546875,1,1,1
1534599891.140.966064453125,-0.341552734375,0.049560546875,1,1,1
1534599891.140.9609375,-0.338134765625,0.048095703125,1,1,1
1534599891.140.9609375,-0.338134765625,0.048095703125,1,1,1
1534599891.140.961669921875,-0.335693359375,0.046142578125,1,1,1
1534599891.140.961669921875,-0.335693359375,0.046142578125,1,1,1
1534599891.140.963134765625,-0.3359375,0.046875,1,1,1
1534599891.140.963134765625,-0.3359375,0.046875,1,1,1
1534599891.140.9638671875,-0.3359375,0.047607421875,1,1,1
1534599891.140.9638671875,-0.3359375,0.047607421875,1,1,1
1534599891.150.96435546875,-0.337646484375,0.044189453125,1,1,1
1534599891.150.96435546875,-0.337646484375,0.044189453125,1,1,1
1534599891.150.96337890625,-0.3388671875,0.046142578125,1,1,1
1534599891.150.96337890625,-0.3388671875,0.046142578125,1,1,1
1534599891.150.9638671875,-0.337646484375,0.050048828125,1,1,1
1534599891.150.9638671875,-0.337646484375,0.050048828125,1,1,1
1534599891.150.9619140625,-0.337646484375,0.047607421875,1,1,1
1534599891.150.9619140625,-0.337646484375,0.047607421875,1,1,1
1534599891.150.96337890625,-0.33447265625,0.044921875,1,1,1
1534599891.150.96337890625,-0.33447265625,0.044921875,1,1,1
1534599891.150.96435546875,-0.333740234375,0.046630859375,1,1,1
1534599891.150.96435546875,-0.333740234375,0.046630859375,1,1,1
1534599891.150.9638671875,-0.335205078125,0.048583984375,1,1,1
1534599891.150.9638671875,-0.335205078125,0.048583984375,1,1,1
1534599891.150.965576171875,-0.336181640625,0.04931640625,1,1,1
1534599891.150.965576171875,-0.336181640625,0.04931640625,1,1,1
1534599891.150.965576171875,-0.3388671875,0.052734375,1,1,1
1534599891.150.965576171875,-0.3388671875,0.052734375,1,1,1
1534599891.150.965087890625,-0.339111328125,0.052001953125,1,1,1
1534599891.150.965087890625,-0.339111328125,0.052001953125,1,1,1
1534599891.150.962158203125,-0.337646484375,0.048828125,1,1,1
1534599891.160.962158203125,-0.337646484375,0.048828125,1,1,1
1534599891.160.963134765625,-0.33642578125,0.0498046875,1,1,1
1534599891.160.963134765625,-0.33642578125,0.0498046875,1,1,1
1534599891.160.96337890625,-0.3388671875,0.052490234375,1,1,1
1534599891.160.96337890625,-0.3388671875,0.052490234375,1,1,1
1534599891.160.962646484375,-0.3388671875,0.05322265625,1,1,1
1534599891.160.962646484375,-0.3388671875,0.05322265625,1,1,1
1534599891.160.965576171875,-0.33642578125,0.050048828125,1,1,1
1534599891.160.965576171875,-0.33642578125,0.050048828125,1,1,1
1534599891.160.965576171875,-0.33740234375,0.05078125,1,1,1
1534599891.160.965576171875,-0.33740234375,0.05078125,1,1,1
1534599891.160.9658203125,-0.337158203125,0.054931640625,1,1,1
1534599891.160.964599609375,-0.33447265625,0.052978515625,1,1,1
1534599891.160.964599609375,-0.33447265625,0.052978515625,1,1,1
1534599891.160.963134765625,-0.3349609375,0.05126953125,1,1,1
1534599891.160.963134765625,-0.3349609375,0.05126953125,1,1,1
1534599891.160.967529296875,-0.3369140625,0.049072265625,1,1,1
1534599891.160.967529296875,-0.3369140625,0.049072265625,1,1,1
1534599891.160.96875,-0.3359375,0.0478515625,1,1,1
1534599891.170.96875,-0.3359375,0.0478515625,1,1,1
1534599891.170.965576171875,-0.335693359375,0.05029296875,1,1,1
1534599891.170.965576171875,-0.335693359375,0.05029296875,1,1,1
1534599891.170.96435546875,-0.33642578125,0.0498046875,1,1,1
1534599891.170.96435546875,-0.33642578125,0.0498046875,1,1,1
1534599891.170.963134765625,-0.33349609375,0.047119140625,1,1,1
1534599891.170.963134765625,-0.33349609375,0.047119140625,1,1,1
1534599891.170.963623046875,-0.33203125,0.04736328125,1,1,1
1534599891.170.963623046875,-0.33203125,0.04736328125,1,1,1
1534599891.170.96435546875,-0.33544921875,0.049072265625,1,1,1
1534599891.170.96435546875,-0.33544921875,0.049072265625,1,1,1
1534599891.170.965576171875,-0.336669921875,0.050048828125,1,1,1
1534599891.170.965576171875,-0.336669921875,0.050048828125,1,1,1
1534599891.170.964111328125,-0.3349609375,0.05029296875,1,1,1
1534599891.170.964111328125,-0.3349609375,0.05029296875,1,1,1
1534599891.170.962646484375,-0.3359375,0.04833984375,1,1,1
1534599891.170.962646484375,-0.3359375,0.04833984375,1,1,1
1534599891.170.962646484375,-0.33544921875,0.04638671875,1,1,1
1534599891.170.962646484375,-0.33544921875,0.04638671875,1,1,1
1534599891.170.963623046875,-0.335205078125,0.046142578125,1,1,1
1534599891.180.963623046875,-0.335205078125,0.046142578125,1,1,1
1534599891.180.96630859375,-0.3388671875,0.048095703125,1,1,1
1534599891.180.96630859375,-0.3388671875,0.048095703125,1,1,1
1534599891.180.964111328125,-0.339111328125,0.051513671875,1,1,1
1534599891.180.964111328125,-0.339111328125,0.051513671875,1,1,1
1534599891.180.9638671875,-0.338134765625,0.051513671875,1,1,1
1534599891.180.9638671875,-0.338134765625,0.051513671875,1,1,1
1534599891.180.967529296875,-0.33935546875,0.046875,1,1,1
1534599891.180.967529296875,-0.33935546875,0.046875,1,1,1
1534599891.180.96826171875,-0.337890625,0.051025390625,1,1,1
1534599891.180.96826171875,-0.337890625,0.051025390625,1,1,1
1534599891.180.968505859375,-0.337158203125,0.05322265625,1,1,1
1534599891.180.968505859375,-0.337158203125,0.05322265625,1,1,1
1534599891.180.968017578125,-0.337890625,0.048828125,1,1,1
1534599891.180.968017578125,-0.337890625,0.048828125,1,1,1
1534599891.180.9638671875,-0.338623046875,0.04638671875,1,1,1
1534599891.180.9638671875,-0.338623046875,0.04638671875,1,1,1
1534599891.180.961669921875,-0.33642578125,0.04931640625,1,1,1
1534599891.180.961669921875,-0.33642578125,0.04931640625,1,1,1
1534599891.180.964111328125,-0.33349609375,0.0517578125,1,1,1
1534599891.190.964111328125,-0.33349609375,0.0517578125,1,1,1
1534599891.190.96826171875,-0.334716796875,0.050048828125,1,1,1
1534599891.190.96826171875,-0.334716796875,0.050048828125,1,1,1
1534599891.190.968994140625,-0.336181640625,0.05224609375,1,1,1
1534599891.190.968994140625,-0.336181640625,0.05224609375,1,1,1
1534599891.190.968994140625,-0.336181640625,0.05224609375,1,1,1
1534599891.190.96728515625,-0.337158203125,0.052978515625,1,1,1
1534599891.190.966552734375,-0.337890625,0.049560546875,1,1,1
1534599891.190.966552734375,-0.337890625,0.049560546875,1,1,1
1534599891.190.96484375,-0.3359375,0.050537109375,1,1,1
1534599891.190.96484375,-0.3359375,0.050537109375,1,1,1
1534599891.190.96484375,-0.3359375,0.050537109375,1,1,1
1534599891.190.963134765625,-0.336669921875,0.052001953125,1,1,1
1534599891.190.963134765625,-0.336669921875,0.052001953125,1,1,1
1534599891.190.96240234375,-0.337646484375,0.04833984375,1,1,1
1534599891.190.96240234375,-0.337646484375,0.04833984375,1,1,1
1534599891.190.964111328125,-0.333740234375,0.047607421875,1,1,1
1534599891.20.966796875,-0.334228515625,0.049072265625,1,1,1
1534599891.20.96240234375,-0.33935546875,0.05029296875,1,1,1
1534599891.210.96484375,-0.333984375,0.0498046875,1,1,1
1534599891.210.96337890625,-0.337158203125,0.05126953125,1,1,1
1534599891.210.96240234375,-0.335205078125,0.048583984375,1,1,1
1534599891.210.9658203125,-0.334716796875,0.04833984375,1,1,1
1534599891.210.9658203125,-0.334716796875,0.04833984375,1,1,1
1534599891.210.96533203125,-0.33447265625,0.049072265625,1,1,1
1534599891.210.9638671875,-0.33837890625,0.049072265625,1,1,1
1534599891.210.9638671875,-0.33837890625,0.049072265625,1,1,1
1534599891.210.963623046875,-0.337646484375,0.04638671875,1,1,1
1534599891.210.962890625,-0.336669921875,0.05029296875,1,1,1
1534599891.220.962890625,-0.336669921875,0.05029296875,1,1,1
1534599891.220.96240234375,-0.33984375,0.05126953125,1,1,1
1534599891.220.964111328125,-0.3349609375,0.050048828125,1,1,1
1534599891.220.966552734375,-0.337158203125,0.046630859375,1,1,1
1534599891.220.9677734375,-0.336669921875,0.0546875,1,1,1
1534599891.220.9677734375,-0.336669921875,0.0546875,1,1,1
1534599891.220.965576171875,-0.334716796875,0.0556640625,1,1,1
1534599891.230.962890625,-0.33447265625,0.0537109375,1,1,1
1534599891.230.965087890625,-0.33349609375,0.052734375,1,1,1
1534599891.230.966796875,-0.335693359375,0.047607421875,1,1,1
1534599891.230.967041015625,-0.33642578125,0.04638671875,1,1,1
1534599891.230.965576171875,-0.33447265625,0.052734375,1,1,1
1534599891.230.965576171875,-0.33447265625,0.052734375,1,1,1
1534599891.230.964111328125,-0.337158203125,0.05322265625,1,1,1
1534599891.230.9658203125,-0.339111328125,0.048095703125,1,1,1
1534599891.230.965087890625,-0.337646484375,0.04736328125,1,1,1
1534599891.230.965087890625,-0.337646484375,0.04736328125,1,1,1
1534599891.230.963134765625,-0.337646484375,0.046142578125,1,1,1
1534599891.230.96533203125,-0.333740234375,0.048828125,1,1,1
1534599891.230.96728515625,-0.33349609375,0.049560546875,1,1,1
1534599891.240.96728515625,-0.33349609375,0.049560546875,1,1,1
1534599891.240.964599609375,-0.3369140625,0.050537109375,1,1,1
1534599891.240.961181640625,-0.335693359375,0.05224609375,1,1,1
1534599891.240.961181640625,-0.335693359375,0.05224609375,1,1,1
1534599891.250.9619140625,-0.335205078125,0.05419921875,1,1,1
1534599891.250.964599609375,-0.3349609375,0.05322265625,1,1,1
1534599891.250.964599609375,-0.335205078125,0.0546875,1,1,1
1534599891.250.964599609375,-0.335205078125,0.0546875,1,1,1
1534599891.250.962890625,-0.337158203125,0.05224609375,1,1,1
1534599891.250.967041015625,-0.335693359375,0.04833984375,1,1,1
1534599891.250.967041015625,-0.335693359375,0.04833984375,1,1,1
1534599891.250.965576171875,-0.338623046875,0.05078125,1,1,1
1534599891.250.9658203125,-0.33447265625,0.052978515625,1,1,1
1534599891.250.9638671875,-0.337646484375,0.052978515625,1,1,1
1534599891.260.9638671875,-0.337646484375,0.052978515625,1,1,1
1534599891.260.96044921875,-0.335693359375,0.052490234375,1,1,1
1534599891.260.9609375,-0.334716796875,0.050048828125,1,1,1
1534599891.260.9609375,-0.334716796875,0.050048828125,1,1,1
1534599891.260.966796875,-0.333984375,0.044921875,1,1,1
1534599891.260.966064453125,-0.3349609375,0.05029296875,1,1,1
1534599891.260.966064453125,-0.33642578125,0.046875,1,1,1
1534599891.260.966064453125,-0.33642578125,0.046875,1,1,1
1534599891.260.9658203125,-0.3388671875,0.041015625,1,1,1
1534599891.260.9658203125,-0.3388671875,0.041015625,1,1,1
1534599891.260.962158203125,-0.34130859375,0.0478515625,1,1,1
1534599891.260.964111328125,-0.337890625,0.0537109375,1,1,1
1534599891.260.964111328125,-0.337890625,0.0537109375,1,1,1
1534599891.260.9658203125,-0.333984375,0.056640625,1,1,1
1534599891.260.966552734375,-0.33740234375,0.051025390625,1,1,1
1534599891.270.966064453125,-0.33837890625,0.04736328125,1,1,1
1534599891.270.965576171875,-0.336181640625,0.049560546875,1,1,1
1534599891.270.96435546875,-0.3388671875,0.051025390625,1,1,1
1534599891.270.96435546875,-0.3388671875,0.051025390625,1,1,1
1534599891.270.963134765625,-0.341064453125,0.05126953125,1,1,1
1534599891.270.963134765625,-0.341064453125,0.05126953125,1,1,1
1534599891.270.965576171875,-0.340087890625,0.050537109375,1,1,1
1534599891.270.963134765625,-0.3359375,0.050048828125,1,1,1
1534599891.270.9619140625,-0.334716796875,0.05029296875,1,1,1
1534599891.270.9619140625,-0.334716796875,0.05029296875,1,1,1
1534599891.270.962646484375,-0.33984375,0.053466796875,1,1,1
1534599891.270.962646484375,-0.33984375,0.053466796875,1,1,1
1534599891.270.962646484375,-0.34033203125,0.051513671875,1,1,1
1534599891.270.96630859375,-0.3388671875,0.05126953125,1,1,1
1534599891.270.96630859375,-0.3388671875,0.05126953125,1,1,1
1534599891.280.967529296875,-0.339599609375,0.052734375,1,1,1
1534599891.280.967041015625,-0.338623046875,0.04736328125,1,1,1
1534599891.280.967041015625,-0.338623046875,0.04736328125,1,1,1
1534599891.280.966064453125,-0.338623046875,0.052001953125,1,1,1
1534599891.280.9638671875,-0.3359375,0.055419921875,1,1,1
1534599891.280.9638671875,-0.3359375,0.055419921875,1,1,1
1534599891.280.96337890625,-0.336181640625,0.052001953125,1,1,1
1534599891.280.96337890625,-0.336181640625,0.052001953125,1,1,1
1534599891.280.964599609375,-0.339111328125,0.053466796875,1,1,1
1534599891.280.965576171875,-0.3369140625,0.051025390625,1,1,1
1534599891.280.965576171875,-0.3369140625,0.051025390625,1,1,1
1534599891.280.967041015625,-0.339599609375,0.051025390625,1,1,1
1534599891.280.967041015625,-0.339599609375,0.051025390625,1,1,1
1534599891.280.969970703125,-0.3408203125,0.050048828125,1,1,1
1534599891.280.97119140625,-0.337890625,0.048828125,1,1,1
1534599891.280.97119140625,-0.337890625,0.048828125,1,1,1
1534599891.290.969482421875,-0.337646484375,0.04931640625,1,1,1
1534599891.290.969482421875,-0.337646484375,0.04931640625,1,1,1
1534599891.290.966796875,-0.3369140625,0.05126953125,1,1,1
1534599891.290.96337890625,-0.338623046875,0.0517578125,1,1,1
1534599891.290.96337890625,-0.338623046875,0.0517578125,1,1,1
1534599891.290.96728515625,-0.33740234375,0.049072265625,1,1,1
1534599891.290.96728515625,-0.33740234375,0.049072265625,1,1,1
1534599891.290.967041015625,-0.335205078125,0.04736328125,1,1,1
1534599891.290.965087890625,-0.335205078125,0.0478515625,1,1,1
1534599891.290.965087890625,-0.335205078125,0.0478515625,1,1,1
1534599891.290.96923828125,-0.335205078125,0.0478515625,1,1,1
1534599891.290.96923828125,-0.335205078125,0.0478515625,1,1,1
1534599891.290.968505859375,-0.3369140625,0.05224609375,1,1,1
1534599891.290.96923828125,-0.33447265625,0.05517578125,1,1,1
1534599891.290.96923828125,-0.33447265625,0.05517578125,1,1,1
1534599891.290.970458984375,-0.333984375,0.05078125,1,1,1
1534599891.290.9677734375,-0.33837890625,0.051513671875,1,1,1
1534599891.30.9677734375,-0.33837890625,0.051513671875,1,1,1
1534599891.30.966064453125,-0.338623046875,0.053955078125,1,1,1
1534599891.30.966064453125,-0.338623046875,0.053955078125,1,1,1
1534599891.30.964599609375,-0.3359375,0.052001953125,1,1,1
1534599891.30.962890625,-0.33544921875,0.0498046875,1,1,1
1534599891.30.962890625,-0.33544921875,0.0498046875,1,1,1
1534599891.30.96630859375,-0.336181640625,0.044677734375,1,1,1
1534599891.30.96630859375,-0.336181640625,0.044677734375,1,1,1
1534599891.30.96728515625,-0.337890625,0.0458984375,1,1,1
1534599891.30.96728515625,-0.337890625,0.0458984375,1,1,1
1534599891.30.965576171875,-0.3388671875,0.049560546875,1,1,1
1534599891.30.962890625,-0.337158203125,0.047119140625,1,1,1
1534599891.30.9609375,-0.338134765625,0.045654296875,1,1,1
1534599891.30.9609375,-0.338134765625,0.045654296875,1,1,1
1534599891.30.963134765625,-0.34033203125,0.046875,1,1,1
1534599891.310.96484375,-0.338623046875,0.048828125,1,1,1
1534599891.310.96484375,-0.338623046875,0.048828125,1,1,1
1534599891.310.96630859375,-0.336669921875,0.048095703125,1,1,1
1534599891.310.96630859375,-0.336669921875,0.048095703125,1,1,1
1534599891.310.969970703125,-0.337890625,0.051513671875,1,1,1
1534599891.310.968994140625,-0.33984375,0.05029296875,1,1,1
1534599891.310.968994140625,-0.33984375,0.05029296875,1,1,1
1534599891.310.963623046875,-0.33935546875,0.04931640625,1,1,1
1534599891.310.963623046875,-0.33935546875,0.04931640625,1,1,1
1534599891.310.965087890625,-0.338623046875,0.0546875,1,1,1
1534599891.310.965576171875,-0.340087890625,0.05419921875,1,1,1
1534599891.310.965576171875,-0.340087890625,0.05419921875,1,1,1
1534599891.310.963134765625,-0.337646484375,0.05029296875,1,1,1
1534599891.310.962158203125,-0.338134765625,0.046630859375,1,1,1
1534599891.310.962158203125,-0.338134765625,0.046630859375,1,1,1
1534599891.310.963134765625,-0.339111328125,0.048095703125,1,1,1
1534599891.310.9638671875,-0.33642578125,0.049560546875,1,1,1
1534599891.320.9638671875,-0.33642578125,0.049560546875,1,1,1
1534599891.320.968017578125,-0.3408203125,0.048095703125,1,1,1
1534599891.320.968017578125,-0.3408203125,0.048095703125,1,1,1
1534599891.320.970703125,-0.3388671875,0.04931640625,1,1,1
1534599891.320.9697265625,-0.3349609375,0.04736328125,1,1,1
1534599891.320.9697265625,-0.3349609375,0.04736328125,1,1,1
1534599891.320.970703125,-0.3359375,0.04833984375,1,1,1
1534599891.320.969482421875,-0.3359375,0.050048828125,1,1,1
1534599891.320.969482421875,-0.3359375,0.050048828125,1,1,1
1534599891.320.966552734375,-0.338134765625,0.046630859375,1,1,1
1534599891.320.966552734375,-0.338134765625,0.046630859375,1,1,1
1534599891.320.966064453125,-0.339599609375,0.048828125,1,1,1
1534599891.320.966064453125,-0.339599609375,0.048828125,1,1,1
1534599891.320.966796875,-0.341552734375,0.05078125,1,1,1
1534599891.320.9658203125,-0.340576171875,0.047119140625,1,1,1
1534599891.320.9658203125,-0.340576171875,0.047119140625,1,1,1
1534599891.330.966064453125,-0.3388671875,0.050048828125,1,1,1
1534599891.330.966064453125,-0.3388671875,0.050048828125,1,1,1
1534599891.330.96630859375,-0.337890625,0.05419921875,1,1,1
1534599891.330.968505859375,-0.337158203125,0.05419921875,1,1,1
1534599891.330.968505859375,-0.337158203125,0.05419921875,1,1,1
1534599891.330.96875,-0.339111328125,0.055419921875,1,1,1
1534599891.330.96875,-0.339111328125,0.055419921875,1,1,1
1534599891.330.963134765625,-0.338134765625,0.052001953125,1,1,1
1534599891.330.96337890625,-0.33544921875,0.04833984375,1,1,1
1534599891.330.96337890625,-0.33544921875,0.04833984375,1,1,1
1534599891.330.965087890625,-0.338134765625,0.04541015625,1,1,1
1534599891.330.965087890625,-0.338134765625,0.04541015625,1,1,1
1534599891.330.964599609375,-0.337158203125,0.0419921875,1,1,1
1534599891.330.964599609375,-0.33447265625,0.047119140625,1,1,1
1534599891.330.964599609375,-0.33447265625,0.047119140625,1,1,1
1534599891.330.966552734375,-0.334228515625,0.052978515625,1,1,1
1534599891.330.966796875,-0.33544921875,0.04931640625,1,1,1
1534599891.340.966796875,-0.33544921875,0.04931640625,1,1,1
1534599891.340.96240234375,-0.339111328125,0.04296875,1,1,1
1534599891.340.96240234375,-0.339111328125,0.04296875,1,1,1
1534599891.340.962890625,-0.336181640625,0.042236328125,1,1,1
1534599891.340.962890625,-0.336181640625,0.042236328125,1,1,1
1534599891.340.96435546875,-0.3349609375,0.04638671875,1,1,1
1534599891.340.963623046875,-0.336669921875,0.0517578125,1,1,1
1534599891.340.963623046875,-0.336669921875,0.0517578125,1,1,1
1534599891.340.962890625,-0.33544921875,0.054931640625,1,1,1
1534599891.340.962890625,-0.33544921875,0.054931640625,1,1,1
1534599891.340.960205078125,-0.336669921875,0.0517578125,1,1,1
1534599891.340.9619140625,-0.33544921875,0.04736328125,1,1,1
1534599891.340.9619140625,-0.33544921875,0.04736328125,1,1,1
1534599891.340.966796875,-0.331787109375,0.046875,1,1,1
1534599891.340.96533203125,-0.334716796875,0.045166015625,1,1,1
1534599891.340.96533203125,-0.334716796875,0.045166015625,1,1,1
1534599891.340.96337890625,-0.3359375,0.04638671875,1,1,1
1534599891.350.96337890625,-0.3359375,0.04638671875,1,1,1
1534599891.350.964111328125,-0.33447265625,0.0498046875,1,1,1
1534599891.350.9638671875,-0.338134765625,0.051513671875,1,1,1
1534599891.350.9638671875,-0.338134765625,0.051513671875,1,1,1
1534599891.350.962646484375,-0.33984375,0.053955078125,1,1,1
1534599891.350.962646484375,-0.33984375,0.053955078125,1,1,1
1534599891.350.96142578125,-0.33935546875,0.0517578125,1,1,1
1534599891.350.9638671875,-0.339111328125,0.04931640625,1,1,1
1534599891.350.9638671875,-0.339111328125,0.04931640625,1,1,1
1534599891.350.967041015625,-0.335205078125,0.046630859375,1,1,1
1534599891.350.967041015625,-0.335205078125,0.046630859375,1,1,1
1534599891.350.965576171875,-0.33203125,0.046630859375,1,1,1
1534599891.350.96484375,-0.33203125,0.049560546875,1,1,1
1534599891.350.96484375,-0.33203125,0.049560546875,1,1,1
1534599891.350.966064453125,-0.335693359375,0.049072265625,1,1,1
1534599891.350.96630859375,-0.337646484375,0.0458984375,1,1,1
1534599891.360.96630859375,-0.337646484375,0.0458984375,1,1,1
1534599891.360.96875,-0.3359375,0.039306640625,1,1,1
1534599891.360.96875,-0.3359375,0.039306640625,1,1,1
1534599891.360.96728515625,-0.3330078125,0.040283203125,1,1,1
1534599891.360.964599609375,-0.334228515625,0.04345703125,1,1,1
1534599891.360.964599609375,-0.334228515625,0.04345703125,1,1,1
1534599891.360.96630859375,-0.3359375,0.044921875,1,1,1
1534599891.360.96484375,-0.33642578125,0.047607421875,1,1,1
1534599891.360.96484375,-0.33642578125,0.047607421875,1,1,1
1534599891.360.96484375,-0.336181640625,0.048828125,1,1,1
1534599891.360.96484375,-0.336181640625,0.048828125,1,1,1
1534599891.370.96630859375,-0.335693359375,0.048583984375,1,1,1
1534599891.370.966552734375,-0.3359375,0.055419921875,1,1,1
1534599891.370.969482421875,-0.334716796875,0.04833984375,1,1,1
1534599891.370.96923828125,-0.340087890625,0.053955078125,1,1,1
1534599891.380.96728515625,-0.337158203125,0.051513671875,1,1,1
1534599891.380.961181640625,-0.33935546875,0.047607421875,1,1,1
1534599891.380.9619140625,-0.339111328125,0.04638671875,1,1,1
1534599891.380.9619140625,-0.339111328125,0.04638671875,1,1,1
1534599891.380.966796875,-0.33740234375,0.0458984375,1,1,1
1534599891.380.967041015625,-0.337158203125,0.047119140625,1,1,1
1534599891.380.967041015625,-0.337158203125,0.047119140625,1,1,1
1534599891.380.96337890625,-0.334228515625,0.04931640625,1,1,1
1534599891.380.962890625,-0.336669921875,0.046875,1,1,1
1534599891.380.96484375,-0.3388671875,0.0498046875,1,1,1
1534599891.380.96484375,-0.3388671875,0.0498046875,1,1,1
1534599891.390.965576171875,-0.3388671875,0.054443359375,1,1,1
1534599891.390.96435546875,-0.337646484375,0.055908203125,1,1,1
1534599891.390.96435546875,-0.337646484375,0.055908203125,1,1,1
1534599891.390.96484375,-0.337158203125,0.052978515625,1,1,1
1534599891.390.965087890625,-0.33740234375,0.051025390625,1,1,1
1534599891.390.96240234375,-0.33935546875,0.05224609375,1,1,1
1534599891.390.96240234375,-0.33935546875,0.05224609375,1,1,1
1534599891.390.962158203125,-0.33740234375,0.05126953125,1,1,1
1534599891.390.96044921875,-0.336181640625,0.0576171875,1,1,1
1534599891.40.960205078125,-0.341552734375,0.0537109375,1,1,1
1534599891.40.963134765625,-0.33837890625,0.053955078125,1,1,1
1534599891.40.96484375,-0.33740234375,0.05029296875,1,1,1
1534599891.40.96728515625,-0.33447265625,0.049072265625,1,1,1
1534599891.40.968994140625,-0.336181640625,0.046142578125,1,1,1
1534599891.40.968994140625,-0.336181640625,0.046142578125,1,1,1
1534599891.40.968017578125,-0.337890625,0.047607421875,1,1,1
1534599891.40.96484375,-0.337890625,0.050048828125,1,1,1
1534599891.40.966796875,-0.33837890625,0.0517578125,1,1,1
1534599891.40.966796875,-0.33837890625,0.0517578125,1,1,1
1534599891.410.968017578125,-0.33740234375,0.05078125,1,1,1
1534599891.410.967041015625,-0.335205078125,0.045166015625,1,1,1
1534599891.410.968017578125,-0.336669921875,0.04736328125,1,1,1
1534599891.410.966796875,-0.334716796875,0.052001953125,1,1,1
1534599891.410.966796875,-0.334716796875,0.052001953125,1,1,1
1534599891.410.968505859375,-0.337158203125,0.047607421875,1,1,1
1534599891.410.968017578125,-0.336181640625,0.046142578125,1,1,1
1534599891.410.96484375,-0.33447265625,0.045166015625,1,1,1
1534599891.410.965576171875,-0.333984375,0.047607421875,1,1,1
1534599891.420.968017578125,-0.33251953125,0.05078125,1,1,1
1534599891.420.968017578125,-0.33251953125,0.05078125,1,1,1
1534599891.420.968994140625,-0.334228515625,0.046142578125,1,1,1
1534599891.420.96630859375,-0.33935546875,0.04150390625,1,1,1
1534599891.420.962646484375,-0.339111328125,0.048583984375,1,1,1
1534599891.420.96484375,-0.33642578125,0.052490234375,1,1,1
1534599891.420.96484375,-0.33642578125,0.052490234375,1,1,1
1534599891.420.966552734375,-0.340087890625,0.0478515625,1,1,1
1534599891.420.968017578125,-0.340087890625,0.049560546875,1,1,1
1534599891.420.968017578125,-0.340087890625,0.049560546875,1,1,1
1534599891.430.965576171875,-0.337890625,0.05322265625,1,1,1
1534599891.430.96826171875,-0.33642578125,0.05126953125,1,1,1
1534599891.430.96875,-0.335693359375,0.051513671875,1,1,1
1534599891.430.96826171875,-0.337646484375,0.0498046875,1,1,1
1534599891.430.969482421875,-0.340087890625,0.047607421875,1,1,1
1534599891.430.969482421875,-0.340087890625,0.047607421875,1,1,1
1534599891.430.96533203125,-0.33837890625,0.047607421875,1,1,1
1534599891.430.96337890625,-0.335693359375,0.045166015625,1,1,1
1534599891.430.96337890625,-0.335693359375,0.045166015625,1,1,1
1534599891.430.966064453125,-0.335205078125,0.04638671875,1,1,1
1534599891.430.96484375,-0.3359375,0.048095703125,1,1,1
1534599891.440.96484375,-0.3359375,0.048095703125,1,1,1
1534599891.440.96484375,-0.33642578125,0.0498046875,1,1,1
1534599891.440.966552734375,-0.337890625,0.048828125,1,1,1
1534599891.440.967041015625,-0.339599609375,0.050048828125,1,1,1
1534599891.440.968017578125,-0.336181640625,0.053466796875,1,1,1
1534599891.440.968017578125,-0.336181640625,0.053466796875,1,1,1
1534599891.440.96826171875,-0.334228515625,0.054931640625,1,1,1
1534599891.440.965087890625,-0.3349609375,0.051513671875,1,1,1
1534599891.440.965087890625,-0.3349609375,0.051513671875,1,1,1
1534599891.440.964111328125,-0.333740234375,0.048583984375,1,1,1
1534599891.440.963134765625,-0.333251953125,0.0498046875,1,1,1
1534599891.440.963134765625,-0.333251953125,0.0498046875,1,1,1
1534599891.440.962646484375,-0.334716796875,0.054931640625,1,1,1
1534599891.440.964111328125,-0.33740234375,0.056884765625,1,1,1
1534599891.450.964111328125,-0.33740234375,0.056884765625,1,1,1
1534599891.450.964111328125,-0.33935546875,0.052734375,1,1,1
1534599891.450.962646484375,-0.337890625,0.049072265625,1,1,1
1534599891.450.962646484375,-0.337890625,0.049072265625,1,1,1
1534599891.450.963623046875,-0.333984375,0.050048828125,1,1,1
1534599891.450.963623046875,-0.333984375,0.050048828125,1,1,1
1534599891.450.96630859375,-0.335693359375,0.04931640625,1,1,1
1534599891.450.9638671875,-0.33544921875,0.0478515625,1,1,1
1534599891.450.9638671875,-0.33544921875,0.0478515625,1,1,1
1534599891.450.964599609375,-0.335693359375,0.05224609375,1,1,1
1534599891.450.96826171875,-0.338134765625,0.051025390625,1,1,1
1534599891.450.96826171875,-0.338134765625,0.051025390625,1,1,1
1534599891.450.96728515625,-0.3359375,0.05126953125,1,1,1
1534599891.450.96728515625,-0.3359375,0.05126953125,1,1,1
1534599891.450.966552734375,-0.338623046875,0.049072265625,1,1,1
1534599891.450.967041015625,-0.342529296875,0.046142578125,1,1,1
1534599891.450.967041015625,-0.342529296875,0.046142578125,1,1,1
1534599891.460.965087890625,-0.34130859375,0.051513671875,1,1,1
1534599891.460.965087890625,-0.34130859375,0.051513671875,1,1,1
1534599891.460.964111328125,-0.338134765625,0.048828125,1,1,1
1534599891.460.96435546875,-0.3359375,0.044189453125,1,1,1
1534599891.460.96435546875,-0.3359375,0.044189453125,1,1,1
1534599891.460.96484375,-0.33740234375,0.046630859375,1,1,1
1534599891.460.96484375,-0.33740234375,0.046630859375,1,1,1
1534599891.460.966064453125,-0.338134765625,0.050048828125,1,1,1
1534599891.460.965576171875,-0.3349609375,0.051025390625,1,1,1
1534599891.460.965576171875,-0.3349609375,0.051025390625,1,1,1
1534599891.460.96484375,-0.334228515625,0.050537109375,1,1,1
1534599891.460.96484375,-0.334228515625,0.050537109375,1,1,1
1534599891.460.96435546875,-0.33740234375,0.048583984375,1,1,1
1534599891.460.963134765625,-0.336669921875,0.051025390625,1,1,1
1534599891.460.963134765625,-0.336669921875,0.051025390625,1,1,1
1534599891.460.96435546875,-0.33544921875,0.05126953125,1,1,1
1534599891.470.96435546875,-0.33544921875,0.05126953125,1,1,1
1534599891.470.96484375,-0.335205078125,0.051025390625,1,1,1
1534599891.470.964599609375,-0.336181640625,0.05224609375,1,1,1
1534599891.470.964599609375,-0.336181640625,0.05224609375,1,1,1
1534599891.470.964599609375,-0.33642578125,0.048583984375,1,1,1
1534599891.470.964599609375,-0.3349609375,0.048095703125,1,1,1
1534599891.470.964599609375,-0.3349609375,0.048095703125,1,1,1
1534599891.470.968505859375,-0.336669921875,0.048583984375,1,1,1
1534599891.470.968994140625,-0.3359375,0.048828125,1,1,1
1534599891.470.968994140625,-0.3359375,0.048828125,1,1,1
1534599891.470.96728515625,-0.337158203125,0.04638671875,1,1,1
1534599891.470.96728515625,-0.33837890625,0.046630859375,1,1,1
1534599891.470.96728515625,-0.33837890625,0.046630859375,1,1,1
1534599891.470.96533203125,-0.335693359375,0.047607421875,1,1,1
1534599891.470.96533203125,-0.335693359375,0.047607421875,1,1,1
1534599891.470.96240234375,-0.33447265625,0.049072265625,1,1,1
1534599891.480.96435546875,-0.336181640625,0.052490234375,1,1,1
1534599891.480.96435546875,-0.336181640625,0.052490234375,1,1,1
1534599891.480.963623046875,-0.337646484375,0.048095703125,1,1,1
1534599891.480.963623046875,-0.337646484375,0.048095703125,1,1,1
1534599891.480.962890625,-0.338623046875,0.046630859375,1,1,1
1534599891.480.96630859375,-0.3369140625,0.047607421875,1,1,1
1534599891.480.96630859375,-0.3369140625,0.047607421875,1,1,1
1534599891.480.964111328125,-0.336181640625,0.04736328125,1,1,1
1534599891.480.964111328125,-0.336181640625,0.04736328125,1,1,1
1534599891.480.962890625,-0.33642578125,0.049560546875,1,1,1
1534599891.480.964599609375,-0.334716796875,0.052001953125,1,1,1
1534599891.480.964599609375,-0.334716796875,0.052001953125,1,1,1
1534599891.480.964599609375,-0.336669921875,0.05712890625,1,1,1
1534599891.480.964599609375,-0.336669921875,0.05712890625,1,1,1
1534599891.480.965087890625,-0.3369140625,0.05419921875,1,1,1
1534599891.480.967041015625,-0.336181640625,0.05078125,1,1,1
1534599891.480.967041015625,-0.336181640625,0.05078125,1,1,1
1534599891.490.96875,-0.340087890625,0.051513671875,1,1,1
1534599891.490.96826171875,-0.34228515625,0.049560546875,1,1,1
1534599891.490.96826171875,-0.34228515625,0.049560546875,1,1,1
1534599891.490.96337890625,-0.340087890625,0.051513671875,1,1,1
1534599891.490.96337890625,-0.340087890625,0.051513671875,1,1,1
1534599891.490.96435546875,-0.33837890625,0.053955078125,1,1,1
1534599891.490.96435546875,-0.33837890625,0.053955078125,1,1,1
1534599891.490.965576171875,-0.336181640625,0.0537109375,1,1,1
1534599891.490.963623046875,-0.3310546875,0.04931640625,1,1,1
1534599891.490.963623046875,-0.3310546875,0.04931640625,1,1,1
1534599891.490.96484375,-0.33447265625,0.04248046875,1,1,1
1534599891.490.964111328125,-0.337890625,0.045654296875,1,1,1
1534599891.490.964111328125,-0.337890625,0.045654296875,1,1,1
1534599891.490.964599609375,-0.335693359375,0.052978515625,1,1,1
1534599891.490.964599609375,-0.335693359375,0.052978515625,1,1,1
1534599891.490.966796875,-0.337158203125,0.053955078125,1,1,1
1534599891.490.966796875,-0.337158203125,0.053955078125,1,1,1
1534599891.50.96923828125,-0.339599609375,0.050537109375,1,1,1
1534599891.50.96826171875,-0.340087890625,0.046875,1,1,1
1534599891.50.96826171875,-0.340087890625,0.046875,1,1,1
1534599891.50.96630859375,-0.335205078125,0.045166015625,1,1,1
1534599891.50.96826171875,-0.336181640625,0.045654296875,1,1,1
1534599891.50.96826171875,-0.336181640625,0.045654296875,1,1,1
1534599891.50.96826171875,-0.337646484375,0.0419921875,1,1,1
1534599891.50.96826171875,-0.337646484375,0.0419921875,1,1,1
1534599891.50.965087890625,-0.333251953125,0.0419921875,1,1,1
1534599891.50.965087890625,-0.333251953125,0.0419921875,1,1,1
1534599891.50.964599609375,-0.337646484375,0.050048828125,1,1,1
1534599891.50.96533203125,-0.336181640625,0.050537109375,1,1,1
1534599891.50.96533203125,-0.336181640625,0.050537109375,1,1,1
1534599891.50.96875,-0.33544921875,0.051513671875,1,1,1
1534599891.510.96875,-0.33544921875,0.051513671875,1,1,1
1534599891.510.96923828125,-0.33740234375,0.055908203125,1,1,1
1534599891.510.96923828125,-0.33740234375,0.055908203125,1,1,1
1534599891.510.96533203125,-0.337158203125,0.0517578125,1,1,1
1534599891.510.96533203125,-0.337158203125,0.0517578125,1,1,1
1534599891.510.965576171875,-0.3359375,0.050048828125,1,1,1
1534599891.510.965576171875,-0.3359375,0.050048828125,1,1,1
1534599891.510.967041015625,-0.3369140625,0.05224609375,1,1,1
1534599891.510.967041015625,-0.3369140625,0.05224609375,1,1,1
1534599891.510.96630859375,-0.337646484375,0.052978515625,1,1,1
1534599891.510.96630859375,-0.337646484375,0.052978515625,1,1,1
1534599891.510.96923828125,-0.3388671875,0.050537109375,1,1,1
1534599891.510.96923828125,-0.3388671875,0.050537109375,1,1,1
1534599891.510.969482421875,-0.3369140625,0.04833984375,1,1,1
1534599891.510.969482421875,-0.3369140625,0.04833984375,1,1,1
1534599891.510.969482421875,-0.3369140625,0.04833984375,1,1,1
1534599891.510.9697265625,-0.336669921875,0.046875,1,1,1
1534599891.510.9697265625,-0.336669921875,0.046875,1,1,1
1534599891.510.969482421875,-0.339599609375,0.046875,1,1,1
1534599891.510.969482421875,-0.339599609375,0.046875,1,1,1
1534599891.510.968505859375,-0.341796875,0.0478515625,1,1,1
1534599891.520.968505859375,-0.341796875,0.0478515625,1,1,1
1534599891.520.970458984375,-0.338623046875,0.0478515625,1,1,1
1534599891.520.970458984375,-0.338623046875,0.0478515625,1,1,1
1534599891.520.970703125,-0.3359375,0.048095703125,1,1,1
1534599891.520.964599609375,-0.336181640625,0.050537109375,1,1,1
1534599891.520.961181640625,-0.3369140625,0.05078125,1,1,1
1534599891.520.961181640625,-0.3369140625,0.05078125,1,1,1
1534599891.520.96337890625,-0.3359375,0.045654296875,1,1,1
1534599891.520.96337890625,-0.3359375,0.045654296875,1,1,1
1534599891.520.96337890625,-0.3359375,0.045654296875,1,1,1
1534599891.520.963623046875,-0.335693359375,0.04541015625,1,1,1
1534599891.520.963623046875,-0.335693359375,0.04541015625,1,1,1
1534599891.520.964599609375,-0.34033203125,0.0439453125,1,1,1
1534599891.520.964599609375,-0.34033203125,0.0439453125,1,1,1
1534599891.520.96533203125,-0.338134765625,0.04345703125,1,1,1
1534599891.520.96533203125,-0.338134765625,0.04345703125,1,1,1
1534599891.520.967041015625,-0.3359375,0.0498046875,1,1,1
1534599891.520.967041015625,-0.3359375,0.0498046875,1,1,1
1534599891.520.966552734375,-0.339599609375,0.049560546875,1,1,1
1534599891.530.966552734375,-0.339599609375,0.049560546875,1,1,1
1534599891.530.966552734375,-0.339599609375,0.049560546875,1,1,1
1534599891.530.96533203125,-0.3408203125,0.04833984375,1,1,1
1534599891.530.96728515625,-0.335693359375,0.048583984375,1,1,1
1534599891.530.96728515625,-0.335693359375,0.048583984375,1,1,1
1534599891.540.966064453125,-0.336669921875,0.0478515625,1,1,1
1534599891.540.964111328125,-0.337646484375,0.04931640625,1,1,1
1534599891.540.964111328125,-0.337646484375,0.04931640625,1,1,1
1534599891.540.962646484375,-0.338134765625,0.054931640625,1,1,1
1534599891.540.962646484375,-0.338134765625,0.054931640625,1,1,1
1534599891.540.96337890625,-0.337890625,0.0537109375,1,1,1
1534599891.540.96337890625,-0.337890625,0.0537109375,1,1,1
1534599891.540.965576171875,-0.33642578125,0.053466796875,1,1,1
1534599891.540.965576171875,-0.33642578125,0.053466796875,1,1,1
1534599891.540.962890625,-0.3369140625,0.056396484375,1,1,1
1534599891.540.963623046875,-0.335693359375,0.05126953125,1,1,1
1534599891.540.965576171875,-0.335693359375,0.050537109375,1,1,1
1534599891.540.9638671875,-0.335693359375,0.049072265625,1,1,1
1534599891.540.9638671875,-0.335693359375,0.049072265625,1,1,1
1534599891.540.961669921875,-0.334228515625,0.046630859375,1,1,1
1534599891.540.961669921875,-0.334228515625,0.046630859375,1,1,1
1534599891.540.963623046875,-0.337646484375,0.044677734375,1,1,1
1534599891.550.963623046875,-0.337646484375,0.044677734375,1,1,1
1534599891.550.96630859375,-0.336669921875,0.049560546875,1,1,1
1534599891.550.967041015625,-0.33935546875,0.050048828125,1,1,1
1534599891.550.967041015625,-0.33935546875,0.050048828125,1,1,1
1534599891.550.96826171875,-0.3388671875,0.050537109375,1,1,1
1534599891.550.96826171875,-0.3388671875,0.050537109375,1,1,1
1534599891.550.967041015625,-0.33837890625,0.053466796875,1,1,1
1534599891.550.96484375,-0.33935546875,0.052734375,1,1,1
1534599891.550.96484375,-0.33935546875,0.052734375,1,1,1
1534599891.550.962646484375,-0.33740234375,0.0478515625,1,1,1
1534599891.560.963134765625,-0.337646484375,0.050048828125,1,1,1
1534599891.560.963134765625,-0.337646484375,0.050048828125,1,1,1
1534599891.560.96533203125,-0.33837890625,0.0517578125,1,1,1
1534599891.560.96533203125,-0.33837890625,0.0517578125,1,1,1
1534599891.560.966064453125,-0.337158203125,0.05029296875,1,1,1
1534599891.560.96728515625,-0.33642578125,0.048583984375,1,1,1
1534599891.560.96728515625,-0.33642578125,0.048583984375,1,1,1
1534599891.560.9677734375,-0.3359375,0.048828125,1,1,1
1534599891.560.9677734375,-0.3359375,0.048828125,1,1,1
1534599891.560.970458984375,-0.33544921875,0.05322265625,1,1,1
1534599891.560.97216796875,-0.33544921875,0.04931640625,1,1,1
1534599891.560.97216796875,-0.33544921875,0.04931640625,1,1,1
1534599891.570.968017578125,-0.335693359375,0.043701171875,1,1,1
1534599891.570.96728515625,-0.335693359375,0.046630859375,1,1,1
1534599891.570.968017578125,-0.335693359375,0.049072265625,1,1,1
1534599891.570.968017578125,-0.335693359375,0.049072265625,1,1,1
1534599891.570.969970703125,-0.33544921875,0.04736328125,1,1,1
1534599891.570.969970703125,-0.33544921875,0.04736328125,1,1,1
1534599891.570.9697265625,-0.333251953125,0.050537109375,1,1,1
1534599891.570.96630859375,-0.334228515625,0.04736328125,1,1,1
1534599891.570.96630859375,-0.334228515625,0.04736328125,1,1,1
1534599891.570.962158203125,-0.335205078125,0.042236328125,1,1,1
1534599891.570.9658203125,-0.336669921875,0.045654296875,1,1,1
1534599891.570.9658203125,-0.336181640625,0.050537109375,1,1,1
1534599891.570.962158203125,-0.331787109375,0.048828125,1,1,1
1534599891.570.962158203125,-0.331787109375,0.048828125,1,1,1
1534599891.570.963623046875,-0.33056640625,0.046630859375,1,1,1
1534599891.580.963623046875,-0.33056640625,0.046630859375,1,1,1
1534599891.580.96630859375,-0.33349609375,0.0498046875,1,1,1
1534599891.580.96630859375,-0.33349609375,0.0498046875,1,1,1
1534599891.580.96630859375,-0.337890625,0.049560546875,1,1,1
1534599891.580.96630859375,-0.337890625,0.049560546875,1,1,1
1534599891.580.966064453125,-0.3369140625,0.043701171875,1,1,1
1534599891.580.966064453125,-0.3369140625,0.043701171875,1,1,1
1534599891.580.9658203125,-0.335693359375,0.04736328125,1,1,1
1534599891.580.9658203125,-0.335693359375,0.04736328125,1,1,1
1534599891.580.9658203125,-0.335693359375,0.04736328125,1,1,1
1534599891.580.963623046875,-0.33740234375,0.048583984375,1,1,1
1534599891.580.963623046875,-0.33740234375,0.048583984375,1,1,1
1534599891.580.96337890625,-0.339599609375,0.04736328125,1,1,1
1534599891.580.967529296875,-0.33984375,0.04833984375,1,1,1
1534599891.580.967529296875,-0.33984375,0.04833984375,1,1,1
1534599891.580.96728515625,-0.335205078125,0.049072265625,1,1,1
1534599891.580.96728515625,-0.335205078125,0.049072265625,1,1,1
1534599891.580.96240234375,-0.333251953125,0.05224609375,1,1,1
1534599891.580.96240234375,-0.333251953125,0.05224609375,1,1,1
1534599891.580.9619140625,-0.334228515625,0.0498046875,1,1,1
1534599891.590.9619140625,-0.334228515625,0.0498046875,1,1,1
1534599891.590.96240234375,-0.33642578125,0.046630859375,1,1,1
1534599891.590.96240234375,-0.33642578125,0.046630859375,1,1,1
1534599891.590.963134765625,-0.33544921875,0.04541015625,1,1,1
1534599891.590.963134765625,-0.33544921875,0.04541015625,1,1,1
1534599891.590.96337890625,-0.334228515625,0.0478515625,1,1,1
1534599891.590.96337890625,-0.334228515625,0.0478515625,1,1,1
1534599891.590.96337890625,-0.334228515625,0.0478515625,1,1,1
1534599891.590.963134765625,-0.337646484375,0.05224609375,1,1,1
1534599891.590.963134765625,-0.337646484375,0.05224609375,1,1,1
1534599891.590.96728515625,-0.337158203125,0.049072265625,1,1,1
1534599891.590.96728515625,-0.337158203125,0.049072265625,1,1,1
1534599891.590.97119140625,-0.333984375,0.048828125,1,1,1
1534599891.590.97119140625,-0.333984375,0.048828125,1,1,1
1534599891.590.968994140625,-0.33544921875,0.04931640625,1,1,1
1534599891.590.966552734375,-0.33544921875,0.0439453125,1,1,1
1534599891.590.96630859375,-0.33349609375,0.04248046875,1,1,1
1534599891.590.96630859375,-0.33349609375,0.04248046875,1,1,1
1534599891.590.968017578125,-0.336669921875,0.044189453125,1,1,1
1534599891.60.968017578125,-0.336669921875,0.044189453125,1,1,1
1534599891.60.968017578125,-0.338623046875,0.05078125,1,1,1
1534599891.60.968017578125,-0.338623046875,0.05078125,1,1,1
1534599891.60.96630859375,-0.33740234375,0.055908203125,1,1,1
1534599891.60.96630859375,-0.33740234375,0.055908203125,1,1,1
1534599891.60.96630859375,-0.333740234375,0.048583984375,1,1,1
1534599891.60.96630859375,-0.333740234375,0.048583984375,1,1,1
1534599891.60.96728515625,-0.334716796875,0.04345703125,1,1,1
1534599891.60.96728515625,-0.334716796875,0.04345703125,1,1,1
1534599891.60.966796875,-0.33740234375,0.05029296875,1,1,1
1534599891.60.966796875,-0.33740234375,0.05029296875,1,1,1
1534599891.60.965576171875,-0.33447265625,0.05615234375,1,1,1
1534599891.60.965576171875,-0.33447265625,0.05615234375,1,1,1
1534599891.60.965576171875,-0.33447265625,0.05615234375,1,1,1
1534599891.60.967529296875,-0.33544921875,0.055419921875,1,1,1
1534599891.60.968017578125,-0.3369140625,0.05078125,1,1,1
1534599891.60.96435546875,-0.336669921875,0.04638671875,1,1,1
1534599891.60.962158203125,-0.337158203125,0.0458984375,1,1,1
1534599891.610.96240234375,-0.336669921875,0.047119140625,1,1,1
1534599891.610.962158203125,-0.337646484375,0.045654296875,1,1,1
1534599891.610.96240234375,-0.338623046875,0.045654296875,1,1,1
1534599891.610.96240234375,-0.338623046875,0.045654296875,1,1,1
1534599891.610.9638671875,-0.338134765625,0.04736328125,1,1,1
1534599891.610.9638671875,-0.338134765625,0.04736328125,1,1,1
1534599891.610.9658203125,-0.33740234375,0.049072265625,1,1,1
1534599891.610.9658203125,-0.33740234375,0.049072265625,1,1,1
1534599891.610.969482421875,-0.337646484375,0.046142578125,1,1,1
1534599891.610.969482421875,-0.337646484375,0.046142578125,1,1,1
1534599891.610.97021484375,-0.33740234375,0.04052734375,1,1,1
1534599891.610.97021484375,-0.33740234375,0.04052734375,1,1,1
1534599891.610.966796875,-0.337890625,0.0439453125,1,1,1
1534599891.610.966796875,-0.337890625,0.0439453125,1,1,1
1534599891.610.966796875,-0.337890625,0.0439453125,1,1,1
1534599891.610.966552734375,-0.3388671875,0.05078125,1,1,1
1534599891.610.966552734375,-0.3388671875,0.05078125,1,1,1
1534599891.610.966796875,-0.33740234375,0.05615234375,1,1,1
1534599891.610.966796875,-0.33740234375,0.05615234375,1,1,1
1534599891.620.961669921875,-0.334716796875,0.056396484375,1,1,1
1534599891.620.961669921875,-0.334716796875,0.056396484375,1,1,1
1534599891.620.96044921875,-0.333984375,0.057861328125,1,1,1
1534599891.620.96044921875,-0.333984375,0.057861328125,1,1,1
1534599891.620.963623046875,-0.337890625,0.053955078125,1,1,1
1534599891.620.963623046875,-0.337890625,0.053955078125,1,1,1
1534599891.620.963623046875,-0.337890625,0.053955078125,1,1,1
1534599891.620.96533203125,-0.342041015625,0.048828125,1,1,1
1534599891.620.96533203125,-0.342041015625,0.048828125,1,1,1
1534599891.620.96484375,-0.33837890625,0.048828125,1,1,1
1534599891.620.96484375,-0.33837890625,0.048828125,1,1,1
1534599891.620.964599609375,-0.333740234375,0.04541015625,1,1,1
1534599891.620.964599609375,-0.333740234375,0.04541015625,1,1,1
1534599891.620.9677734375,-0.336181640625,0.048583984375,1,1,1
1534599891.620.9677734375,-0.336181640625,0.048583984375,1,1,1
1534599891.620.96630859375,-0.33642578125,0.052734375,1,1,1
1534599891.620.96630859375,-0.33642578125,0.052734375,1,1,1
1534599891.620.9658203125,-0.336669921875,0.052734375,1,1,1
1534599891.620.9658203125,-0.336669921875,0.052734375,1,1,1
1534599891.620.9658203125,-0.336669921875,0.052734375,1,1,1
1534599891.620.968017578125,-0.337646484375,0.051513671875,1,1,1
1534599891.620.968017578125,-0.337646484375,0.051513671875,1,1,1
1534599891.630.968505859375,-0.33447265625,0.044921875,1,1,1
1534599891.630.968505859375,-0.33447265625,0.044921875,1,1,1
1534599891.630.96630859375,-0.331787109375,0.0458984375,1,1,1
1534599891.630.96630859375,-0.331787109375,0.0458984375,1,1,1
1534599891.630.96337890625,-0.334228515625,0.051513671875,1,1,1
1534599891.630.96337890625,-0.334228515625,0.051513671875,1,1,1
1534599891.630.96728515625,-0.336669921875,0.049560546875,1,1,1
1534599891.630.96728515625,-0.336669921875,0.049560546875,1,1,1
1534599891.630.966552734375,-0.337890625,0.0478515625,1,1,1
1534599891.630.966552734375,-0.337890625,0.0478515625,1,1,1
1534599891.630.963134765625,-0.339599609375,0.047607421875,1,1,1
1534599891.630.963134765625,-0.339599609375,0.047607421875,1,1,1
1534599891.630.96630859375,-0.3369140625,0.0537109375,1,1,1
1534599891.630.96630859375,-0.3369140625,0.0537109375,1,1,1
1534599891.630.964599609375,-0.337646484375,0.052490234375,1,1,1
1534599891.630.964599609375,-0.337646484375,0.052490234375,1,1,1
1534599891.630.964599609375,-0.337646484375,0.052490234375,1,1,1
1534599891.630.965576171875,-0.33935546875,0.04736328125,1,1,1
1534599891.630.965576171875,-0.33935546875,0.04736328125,1,1,1
1534599891.630.968505859375,-0.337646484375,0.051513671875,1,1,1
1534599891.630.968505859375,-0.337646484375,0.051513671875,1,1,1
1534599891.640.967041015625,-0.339599609375,0.0498046875,1,1,1
1534599891.640.967041015625,-0.339599609375,0.0498046875,1,1,1
1534599891.640.963134765625,-0.339111328125,0.048095703125,1,1,1
1534599891.640.963134765625,-0.339111328125,0.048095703125,1,1,1
1534599891.640.96240234375,-0.337646484375,0.05224609375,1,1,1
1534599891.640.96240234375,-0.337646484375,0.05224609375,1,1,1
1534599891.640.963623046875,-0.33740234375,0.053466796875,1,1,1
1534599891.640.963623046875,-0.33740234375,0.053466796875,1,1,1
1534599891.640.963623046875,-0.33740234375,0.053466796875,1,1,1
1534599891.640.9638671875,-0.33642578125,0.051025390625,1,1,1
1534599891.640.9638671875,-0.33642578125,0.051025390625,1,1,1
1534599891.640.966552734375,-0.337890625,0.051025390625,1,1,1
1534599891.640.966552734375,-0.337890625,0.051025390625,1,1,1
1534599891.640.964111328125,-0.337890625,0.05126953125,1,1,1
1534599891.640.964111328125,-0.337890625,0.05126953125,1,1,1
1534599891.640.96142578125,-0.336181640625,0.0498046875,1,1,1
1534599891.640.96142578125,-0.336181640625,0.0498046875,1,1,1
1534599891.640.964111328125,-0.33837890625,0.047119140625,1,1,1
1534599891.640.964111328125,-0.33837890625,0.047119140625,1,1,1
1534599891.640.965576171875,-0.33837890625,0.048583984375,1,1,1
1534599891.640.965576171875,-0.33837890625,0.048583984375,1,1,1
1534599891.640.965576171875,-0.33837890625,0.048583984375,1,1,1
1534599891.650.967529296875,-0.338134765625,0.050537109375,1,1,1
1534599891.650.967529296875,-0.338134765625,0.050537109375,1,1,1
1534599891.650.97021484375,-0.34130859375,0.04833984375,1,1,1
1534599891.650.97021484375,-0.34130859375,0.04833984375,1,1,1
1534599891.650.96630859375,-0.33935546875,0.048583984375,1,1,1
1534599891.650.96630859375,-0.33935546875,0.048583984375,1,1,1
1534599891.650.963134765625,-0.336669921875,0.04736328125,1,1,1
1534599891.650.963134765625,-0.336669921875,0.04736328125,1,1,1
1534599891.650.96435546875,-0.336669921875,0.04638671875,1,1,1
1534599891.650.96435546875,-0.336669921875,0.04638671875,1,1,1
1534599891.650.963623046875,-0.337646484375,0.049560546875,1,1,1
1534599891.650.963623046875,-0.337646484375,0.049560546875,1,1,1
1534599891.650.963623046875,-0.337646484375,0.049560546875,1,1,1
1534599891.650.964599609375,-0.3369140625,0.052490234375,1,1,1
1534599891.650.964599609375,-0.3369140625,0.052490234375,1,1,1
1534599891.650.965576171875,-0.3369140625,0.05419921875,1,1,1
1534599891.650.965576171875,-0.3369140625,0.05419921875,1,1,1
1534599891.650.962890625,-0.340087890625,0.05224609375,1,1,1
1534599891.650.962890625,-0.340087890625,0.05224609375,1,1,1
1534599891.650.962890625,-0.340087890625,0.050537109375,1,1,1
1534599891.650.962890625,-0.340087890625,0.050537109375,1,1,1
1534599891.650.962890625,-0.340087890625,0.050537109375,1,1,1
1534599891.660.96435546875,-0.33935546875,0.052001953125,1,1,1
1534599891.660.96435546875,-0.33935546875,0.052001953125,1,1,1
1534599891.660.961181640625,-0.3388671875,0.05419921875,1,1,1
1534599891.660.961181640625,-0.3388671875,0.05419921875,1,1,1
1534599891.660.959716796875,-0.33447265625,0.05419921875,1,1,1
1534599891.660.959716796875,-0.33447265625,0.05419921875,1,1,1
1534599891.660.963134765625,-0.3330078125,0.049560546875,1,1,1
1534599891.660.963134765625,-0.3330078125,0.049560546875,1,1,1
1534599891.660.965087890625,-0.336181640625,0.052001953125,1,1,1
1534599891.660.965087890625,-0.336181640625,0.052001953125,1,1,1
1534599891.660.96533203125,-0.337158203125,0.050537109375,1,1,1
1534599891.660.96533203125,-0.337158203125,0.050537109375,1,1,1
1534599891.660.968017578125,-0.337646484375,0.0478515625,1,1,1
1534599891.660.968017578125,-0.337646484375,0.0478515625,1,1,1
1534599891.660.96728515625,-0.339599609375,0.047607421875,1,1,1
1534599891.660.96728515625,-0.339599609375,0.047607421875,1,1,1
1534599891.660.96728515625,-0.339599609375,0.047607421875,1,1,1
1534599891.660.965576171875,-0.337890625,0.0458984375,1,1,1
1534599891.660.96923828125,-0.33837890625,0.050048828125,1,1,1
1534599891.670.96630859375,-0.340087890625,0.05224609375,1,1,1
1534599891.670.9619140625,-0.33935546875,0.05029296875,1,1,1
1534599891.670.9619140625,-0.33935546875,0.05029296875,1,1,1
1534599891.670.9619140625,-0.33935546875,0.05029296875,1,1,1
1534599891.670.9609375,-0.339111328125,0.0478515625,1,1,1
1534599891.670.9609375,-0.339111328125,0.0478515625,1,1,1
1534599891.670.962890625,-0.3388671875,0.054931640625,1,1,1
1534599891.670.962890625,-0.3388671875,0.054931640625,1,1,1
1534599891.670.963623046875,-0.33984375,0.052978515625,1,1,1
1534599891.670.963623046875,-0.33984375,0.052978515625,1,1,1
1534599891.670.9609375,-0.33935546875,0.048095703125,1,1,1
1534599891.670.9609375,-0.33935546875,0.048095703125,1,1,1
1534599891.670.965087890625,-0.338623046875,0.05224609375,1,1,1
1534599891.670.965087890625,-0.338623046875,0.05224609375,1,1,1
1534599891.670.965087890625,-0.338623046875,0.05224609375,1,1,1
1534599891.670.970703125,-0.334716796875,0.04931640625,1,1,1
1534599891.670.970703125,-0.334716796875,0.04931640625,1,1,1
1534599891.670.967529296875,-0.333984375,0.049560546875,1,1,1
1534599891.670.967529296875,-0.333984375,0.049560546875,1,1,1
1534599891.670.966552734375,-0.336669921875,0.0498046875,1,1,1
1534599891.670.966552734375,-0.336669921875,0.0498046875,1,1,1
1534599891.670.966552734375,-0.3388671875,0.048583984375,1,1,1
1534599891.680.966552734375,-0.3388671875,0.048583984375,1,1,1
1534599891.680.966552734375,-0.3388671875,0.048583984375,1,1,1
1534599891.680.9638671875,-0.338134765625,0.0498046875,1,1,1
1534599891.680.9638671875,-0.338134765625,0.0498046875,1,1,1
1534599891.680.964599609375,-0.334228515625,0.049072265625,1,1,1
1534599891.690.96240234375,-0.3369140625,0.050537109375,1,1,1
1534599891.690.96435546875,-0.33544921875,0.05224609375,1,1,1
1534599891.690.966064453125,-0.3369140625,0.05029296875,1,1,1
1534599891.690.966064453125,-0.3369140625,0.05029296875,1,1,1
1534599891.690.9677734375,-0.337158203125,0.044921875,1,1,1
1534599891.690.9677734375,-0.337158203125,0.044921875,1,1,1
1534599891.690.964599609375,-0.337890625,0.04638671875,1,1,1
1534599891.690.964599609375,-0.337890625,0.04638671875,1,1,1
1534599891.690.96240234375,-0.33740234375,0.04833984375,1,1,1
1534599891.690.96533203125,-0.336669921875,0.04638671875,1,1,1
1534599891.690.96533203125,-0.336669921875,0.04638671875,1,1,1
1534599891.690.966796875,-0.336669921875,0.050537109375,1,1,1
1534599891.690.966796875,-0.336669921875,0.050537109375,1,1,1
1534599891.690.9658203125,-0.33740234375,0.05224609375,1,1,1
1534599891.690.9658203125,-0.33740234375,0.05224609375,1,1,1
1534599891.690.964599609375,-0.338134765625,0.05712890625,1,1,1
1534599891.690.964111328125,-0.3359375,0.0556640625,1,1,1
1534599891.70.964111328125,-0.3359375,0.0556640625,1,1,1
1534599891.70.964111328125,-0.33544921875,0.0478515625,1,1,1
1534599891.70.964111328125,-0.33544921875,0.0478515625,1,1,1
1534599891.70.966796875,-0.33447265625,0.04833984375,1,1,1
1534599891.70.966796875,-0.33447265625,0.04833984375,1,1,1
1534599891.70.965087890625,-0.3349609375,0.04931640625,1,1,1
1534599891.70.96826171875,-0.33740234375,0.053955078125,1,1,1
1534599891.70.968017578125,-0.33837890625,0.052734375,1,1,1
1534599891.70.968017578125,-0.33837890625,0.052734375,1,1,1
1534599891.70.967041015625,-0.337158203125,0.048095703125,1,1,1
1534599891.70.967041015625,-0.337158203125,0.048095703125,1,1,1
1534599891.710.96630859375,-0.337158203125,0.047607421875,1,1,1
1534599891.710.965087890625,-0.337158203125,0.04931640625,1,1,1
1534599891.710.96435546875,-0.3359375,0.048828125,1,1,1
1534599891.710.96435546875,-0.3359375,0.048828125,1,1,1
1534599891.710.966064453125,-0.334228515625,0.046142578125,1,1,1
1534599891.710.966064453125,-0.334228515625,0.046142578125,1,1,1
1534599891.710.968994140625,-0.33447265625,0.04736328125,1,1,1
1534599891.710.968017578125,-0.336669921875,0.04931640625,1,1,1
1534599891.710.968017578125,-0.336669921875,0.04931640625,1,1,1
1534599891.710.96337890625,-0.33642578125,0.050537109375,1,1,1
1534599891.710.96337890625,-0.33642578125,0.050537109375,1,1,1
1534599891.710.966064453125,-0.336181640625,0.0546875,1,1,1
1534599891.710.966064453125,-0.335205078125,0.05712890625,1,1,1
1534599891.710.96044921875,-0.3310546875,0.05078125,1,1,1
1534599891.710.96044921875,-0.3310546875,0.05078125,1,1,1
1534599891.720.962646484375,-0.332275390625,0.048095703125,1,1,1
1534599891.720.964111328125,-0.334228515625,0.04931640625,1,1,1
1534599891.720.964599609375,-0.3330078125,0.0419921875,1,1,1
1534599891.720.963623046875,-0.333984375,0.048583984375,1,1,1
1534599891.720.963623046875,-0.333984375,0.048583984375,1,1,1
1534599891.720.96728515625,-0.333984375,0.052734375,1,1,1
1534599891.720.96728515625,-0.333984375,0.052734375,1,1,1
1534599891.720.967041015625,-0.334716796875,0.051025390625,1,1,1
1534599891.720.96484375,-0.337646484375,0.050048828125,1,1,1
1534599891.720.96484375,-0.337646484375,0.050048828125,1,1,1
1534599891.720.962890625,-0.3349609375,0.050537109375,1,1,1
1534599891.720.962890625,-0.3349609375,0.050537109375,1,1,1
1534599891.730.96484375,-0.33447265625,0.04833984375,1,1,1
1534599891.730.970947265625,-0.336669921875,0.0546875,1,1,1
1534599891.730.968017578125,-0.3349609375,0.054443359375,1,1,1
1534599891.730.968017578125,-0.3349609375,0.054443359375,1,1,1
1534599891.730.965087890625,-0.33447265625,0.047607421875,1,1,1
1534599891.730.965087890625,-0.33447265625,0.047607421875,1,1,1
1534599891.730.96533203125,-0.337158203125,0.044677734375,1,1,1
1534599891.730.96533203125,-0.337158203125,0.044677734375,1,1,1
1534599891.730.962890625,-0.33837890625,0.052490234375,1,1,1
1534599891.730.962890625,-0.33837890625,0.052490234375,1,1,1
1534599891.730.962890625,-0.33837890625,0.052490234375,1,1,1
1534599891.730.96240234375,-0.3369140625,0.053955078125,1,1,1
1534599891.730.96240234375,-0.3369140625,0.053955078125,1,1,1
1534599891.730.962158203125,-0.33837890625,0.05029296875,1,1,1
1534599891.730.962158203125,-0.33837890625,0.05029296875,1,1,1
1534599891.730.96435546875,-0.342041015625,0.046142578125,1,1,1
1534599891.730.96435546875,-0.342041015625,0.046142578125,1,1,1
1534599891.730.969970703125,-0.338134765625,0.050048828125,1,1,1
1534599891.730.969970703125,-0.338134765625,0.050048828125,1,1,1
1534599891.730.968017578125,-0.33642578125,0.050537109375,1,1,1
1534599891.730.968017578125,-0.33642578125,0.050537109375,1,1,1
1534599891.740.968017578125,-0.33642578125,0.050537109375,1,1,1
1534599891.740.963623046875,-0.342041015625,0.044677734375,1,1,1
1534599891.740.963623046875,-0.342041015625,0.044677734375,1,1,1
1534599891.740.96630859375,-0.3427734375,0.046875,1,1,1
1534599891.740.96630859375,-0.3427734375,0.046875,1,1,1
1534599891.740.96728515625,-0.33544921875,0.049560546875,1,1,1
1534599891.740.96728515625,-0.33544921875,0.049560546875,1,1,1
1534599891.740.965087890625,-0.33544921875,0.048583984375,1,1,1
1534599891.740.965087890625,-0.33544921875,0.048583984375,1,1,1
1534599891.740.96337890625,-0.33740234375,0.0537109375,1,1,1
1534599891.740.96337890625,-0.33740234375,0.0537109375,1,1,1
1534599891.740.96337890625,-0.33740234375,0.0537109375,1,1,1
1534599891.740.961669921875,-0.338623046875,0.056884765625,1,1,1
1534599891.740.961669921875,-0.338623046875,0.056884765625,1,1,1
1534599891.740.964111328125,-0.33984375,0.048583984375,1,1,1
1534599891.740.96435546875,-0.3369140625,0.04541015625,1,1,1
1534599891.740.963623046875,-0.3349609375,0.04736328125,1,1,1
1534599891.750.964111328125,-0.333251953125,0.05078125,1,1,1
1534599891.750.9658203125,-0.33349609375,0.054443359375,1,1,1
1534599891.750.9677734375,-0.3369140625,0.054443359375,1,1,1
1534599891.750.96728515625,-0.337890625,0.05126953125,1,1,1
1534599891.750.96728515625,-0.337890625,0.05126953125,1,1,1
1534599891.750.966064453125,-0.334228515625,0.048095703125,1,1,1
1534599891.750.966064453125,-0.334228515625,0.048095703125,1,1,1
1534599891.750.962890625,-0.33642578125,0.052001953125,1,1,1
1534599891.750.962890625,-0.33642578125,0.052001953125,1,1,1
1534599891.750.963134765625,-0.33740234375,0.056640625,1,1,1
1534599891.750.963134765625,-0.33740234375,0.056640625,1,1,1
1534599891.750.964599609375,-0.3359375,0.0537109375,1,1,1
1534599891.750.964599609375,-0.3359375,0.0537109375,1,1,1
1534599891.750.966064453125,-0.33837890625,0.05224609375,1,1,1
1534599891.750.966064453125,-0.33837890625,0.05224609375,1,1,1
1534599891.750.966064453125,-0.33837890625,0.05224609375,1,1,1
1534599891.750.96630859375,-0.33984375,0.05029296875,1,1,1
1534599891.750.96630859375,-0.33984375,0.05029296875,1,1,1
1534599891.750.962646484375,-0.3388671875,0.044677734375,1,1,1
1534599891.760.962646484375,-0.3388671875,0.044677734375,1,1,1
1534599891.760.96435546875,-0.3349609375,0.05078125,1,1,1
1534599891.760.96435546875,-0.3349609375,0.05078125,1,1,1
1534599891.760.9658203125,-0.336669921875,0.05419921875,1,1,1
1534599891.760.9658203125,-0.336669921875,0.05419921875,1,1,1
1534599891.760.966552734375,-0.340087890625,0.0458984375,1,1,1
1534599891.760.966552734375,-0.340087890625,0.0458984375,1,1,1
1534599891.760.966552734375,-0.340087890625,0.0458984375,1,1,1
1534599891.760.968505859375,-0.33740234375,0.0458984375,1,1,1
1534599891.760.968505859375,-0.33740234375,0.0458984375,1,1,1
1534599891.760.96630859375,-0.33447265625,0.054443359375,1,1,1
1534599891.760.96630859375,-0.33447265625,0.054443359375,1,1,1
1534599891.760.96240234375,-0.336669921875,0.053955078125,1,1,1
1534599891.760.96240234375,-0.336669921875,0.053955078125,1,1,1
1534599891.760.962890625,-0.337890625,0.049072265625,1,1,1
1534599891.760.962890625,-0.337890625,0.049072265625,1,1,1
1534599891.760.965087890625,-0.337646484375,0.04736328125,1,1,1
1534599891.760.965087890625,-0.337646484375,0.04736328125,1,1,1
1534599891.760.96435546875,-0.337158203125,0.050537109375,1,1,1
1534599891.760.96435546875,-0.337158203125,0.050537109375,1,1,1
1534599891.760.96435546875,-0.337158203125,0.050537109375,1,1,1
1534599891.760.96435546875,-0.3330078125,0.05419921875,1,1,1
1534599891.770.96435546875,-0.3330078125,0.05419921875,1,1,1
1534599891.770.966796875,-0.336181640625,0.050537109375,1,1,1
1534599891.770.966796875,-0.336181640625,0.050537109375,1,1,1
1534599891.770.9658203125,-0.338623046875,0.05126953125,1,1,1
1534599891.770.9658203125,-0.338623046875,0.05126953125,1,1,1
1534599891.770.962646484375,-0.337158203125,0.052978515625,1,1,1
1534599891.770.962646484375,-0.337158203125,0.052978515625,1,1,1
1534599891.770.962646484375,-0.337158203125,0.052978515625,1,1,1
1534599891.770.96435546875,-0.334716796875,0.0517578125,1,1,1
1534599891.770.96435546875,-0.334716796875,0.0517578125,1,1,1
1534599891.770.96533203125,-0.33349609375,0.051513671875,1,1,1
1534599891.770.96533203125,-0.33349609375,0.051513671875,1,1,1
1534599891.770.966064453125,-0.335693359375,0.050537109375,1,1,1
1534599891.770.966064453125,-0.335693359375,0.050537109375,1,1,1
1534599891.770.965087890625,-0.337158203125,0.04931640625,1,1,1
1534599891.770.965087890625,-0.337158203125,0.04931640625,1,1,1
1534599891.770.963134765625,-0.334228515625,0.046630859375,1,1,1
1534599891.770.963134765625,-0.334228515625,0.046630859375,1,1,1
1534599891.770.963134765625,-0.334228515625,0.046630859375,1,1,1
1534599891.770.965087890625,-0.33349609375,0.046875,1,1,1
1534599891.770.965087890625,-0.33349609375,0.046875,1,1,1
1534599891.770.966064453125,-0.33740234375,0.051513671875,1,1,1
1534599891.780.966064453125,-0.33740234375,0.051513671875,1,1,1
1534599891.780.96240234375,-0.3369140625,0.047119140625,1,1,1
1534599891.780.96240234375,-0.3369140625,0.047119140625,1,1,1
1534599891.780.961181640625,-0.33740234375,0.045654296875,1,1,1
1534599891.780.961181640625,-0.33740234375,0.045654296875,1,1,1
1534599891.780.96484375,-0.33837890625,0.046630859375,1,1,1
1534599891.780.96484375,-0.33837890625,0.046630859375,1,1,1
1534599891.780.967529296875,-0.33837890625,0.041015625,1,1,1
1534599891.780.967529296875,-0.33837890625,0.041015625,1,1,1
1534599891.780.970458984375,-0.338134765625,0.046142578125,1,1,1
1534599891.780.970458984375,-0.338134765625,0.046142578125,1,1,1
1534599891.780.97119140625,-0.338623046875,0.052734375,1,1,1
1534599891.780.97119140625,-0.338623046875,0.052734375,1,1,1
1534599891.780.970458984375,-0.33740234375,0.05517578125,1,1,1
1534599891.780.970458984375,-0.33740234375,0.05517578125,1,1,1
1534599891.780.965576171875,-0.337646484375,0.054931640625,1,1,1
1534599891.780.965576171875,-0.337646484375,0.054931640625,1,1,1
1534599891.780.965576171875,-0.337646484375,0.054931640625,1,1,1
1534599891.780.9619140625,-0.34033203125,0.052001953125,1,1,1
1534599891.780.9619140625,-0.34033203125,0.052001953125,1,1,1
1534599891.780.964111328125,-0.338623046875,0.048828125,1,1,1
1534599891.780.964111328125,-0.338623046875,0.048828125,1,1,1
1534599891.790.965087890625,-0.33544921875,0.046875,1,1,1
1534599891.790.965087890625,-0.33544921875,0.046875,1,1,1
1534599891.790.96533203125,-0.3330078125,0.04638671875,1,1,1
1534599891.790.96533203125,-0.3330078125,0.04638671875,1,1,1
1534599891.790.96533203125,-0.33251953125,0.05029296875,1,1,1
1534599891.790.96533203125,-0.33251953125,0.05029296875,1,1,1
1534599891.790.96533203125,-0.33251953125,0.05029296875,1,1,1
1534599891.790.964111328125,-0.3349609375,0.05322265625,1,1,1
1534599891.790.964111328125,-0.3349609375,0.05322265625,1,1,1
1534599891.790.962890625,-0.334716796875,0.047607421875,1,1,1
1534599891.790.962890625,-0.334716796875,0.047607421875,1,1,1
1534599891.790.963134765625,-0.33349609375,0.047119140625,1,1,1
1534599891.790.963134765625,-0.33349609375,0.047119140625,1,1,1
1534599891.790.96484375,-0.337158203125,0.050048828125,1,1,1
1534599891.790.96484375,-0.337158203125,0.050048828125,1,1,1
1534599891.790.966064453125,-0.339599609375,0.0517578125,1,1,1
1534599891.790.966064453125,-0.339599609375,0.0517578125,1,1,1
1534599891.790.963134765625,-0.338623046875,0.0546875,1,1,1
1534599891.790.966064453125,-0.337890625,0.049072265625,1,1,1
1534599891.80.9658203125,-0.336669921875,0.043212890625,1,1,1
1534599891.80.9658203125,-0.336669921875,0.043212890625,1,1,1
1534599891.80.9658203125,-0.336669921875,0.043212890625,1,1,1
1534599891.80.962646484375,-0.3349609375,0.04443359375,1,1,1
1534599891.80.962646484375,-0.3349609375,0.04443359375,1,1,1
1534599891.80.96240234375,-0.3330078125,0.040771484375,1,1,1
1534599891.80.96240234375,-0.3330078125,0.040771484375,1,1,1
1534599891.80.96337890625,-0.333740234375,0.044189453125,1,1,1
1534599891.80.96337890625,-0.333740234375,0.044189453125,1,1,1
1534599891.80.968505859375,-0.336181640625,0.04931640625,1,1,1
1534599891.80.968505859375,-0.336181640625,0.04931640625,1,1,1
1534599891.80.96875,-0.337158203125,0.04443359375,1,1,1
1534599891.80.96875,-0.337158203125,0.04443359375,1,1,1
1534599891.80.96875,-0.337158203125,0.04443359375,1,1,1
1534599891.80.966064453125,-0.33349609375,0.0478515625,1,1,1
1534599891.80.966064453125,-0.33349609375,0.0478515625,1,1,1
1534599891.80.96728515625,-0.329345703125,0.0517578125,1,1,1
1534599891.80.964599609375,-0.3330078125,0.046630859375,1,1,1
1534599891.80.964599609375,-0.3330078125,0.046630859375,1,1,1
1534599891.80.964599609375,-0.3330078125,0.046630859375,1,1,1
1534599891.80.9638671875,-0.337890625,0.04443359375,1,1,1
1534599891.810.9638671875,-0.337890625,0.04443359375,1,1,1
1534599891.810.96142578125,-0.334228515625,0.050048828125,1,1,1
1534599891.810.962646484375,-0.338134765625,0.04931640625,1,1,1
1534599891.810.962646484375,-0.338134765625,0.04931640625,1,1,1
1534599891.810.965087890625,-0.3388671875,0.049072265625,1,1,1
1534599891.810.965087890625,-0.3388671875,0.049072265625,1,1,1
1534599891.810.96337890625,-0.333740234375,0.0478515625,1,1,1
1534599891.810.96337890625,-0.333740234375,0.0478515625,1,1,1
1534599891.810.96728515625,-0.336181640625,0.04931640625,1,1,1
1534599891.810.966796875,-0.334716796875,0.050537109375,1,1,1
1534599891.810.966796875,-0.334716796875,0.050537109375,1,1,1
1534599891.810.962890625,-0.3359375,0.05712890625,1,1,1
1534599891.810.962890625,-0.3359375,0.05712890625,1,1,1
1534599891.810.965087890625,-0.33740234375,0.052734375,1,1,1
1534599891.820.965087890625,-0.33740234375,0.052734375,1,1,1
1534599891.820.9677734375,-0.33544921875,0.045166015625,1,1,1
1534599891.820.9677734375,-0.33544921875,0.045166015625,1,1,1
1534599891.820.966552734375,-0.334228515625,0.048583984375,1,1,1
1534599891.820.966796875,-0.33544921875,0.052490234375,1,1,1
1534599891.820.966796875,-0.33544921875,0.052490234375,1,1,1
1534599891.820.96630859375,-0.3349609375,0.05419921875,1,1,1
1534599891.820.96630859375,-0.3349609375,0.05419921875,1,1,1
1534599891.820.96630859375,-0.3349609375,0.05419921875,1,1,1
1534599891.830.9658203125,-0.3349609375,0.052001953125,1,1,1
1534599891.830.9638671875,-0.33544921875,0.048828125,1,1,1
1534599891.830.963134765625,-0.3369140625,0.05126953125,1,1,1
1534599891.830.963134765625,-0.3369140625,0.05126953125,1,1,1
1534599891.830.964111328125,-0.338134765625,0.05126953125,1,1,1
1534599891.830.963134765625,-0.335693359375,0.052001953125,1,1,1
1534599891.830.963134765625,-0.335693359375,0.052001953125,1,1,1
1534599891.830.960205078125,-0.336669921875,0.05322265625,1,1,1
1534599891.830.9619140625,-0.340576171875,0.05126953125,1,1,1
1534599891.830.9619140625,-0.340576171875,0.05126953125,1,1,1
1534599891.840.9619140625,-0.337646484375,0.05126953125,1,1,1
1534599891.840.962646484375,-0.338623046875,0.0498046875,1,1,1
1534599891.840.962646484375,-0.338623046875,0.0498046875,1,1,1
1534599891.840.96337890625,-0.3388671875,0.046630859375,1,1,1
1534599891.840.96337890625,-0.3388671875,0.046630859375,1,1,1
1534599891.840.963134765625,-0.33642578125,0.04833984375,1,1,1
1534599891.840.96337890625,-0.336181640625,0.05078125,1,1,1
1534599891.840.96337890625,-0.336181640625,0.05078125,1,1,1
1534599891.840.962890625,-0.334716796875,0.050048828125,1,1,1
1534599891.850.962890625,-0.334716796875,0.050048828125,1,1,1
1534599891.850.9638671875,-0.3349609375,0.048095703125,1,1,1
1534599891.850.9658203125,-0.337890625,0.044921875,1,1,1
1534599891.850.9658203125,-0.337890625,0.044921875,1,1,1
1534599891.850.966796875,-0.339599609375,0.047119140625,1,1,1
1534599891.850.966796875,-0.339599609375,0.047119140625,1,1,1
1534599891.850.963623046875,-0.3408203125,0.052734375,1,1,1
1534599891.850.963623046875,-0.342041015625,0.052001953125,1,1,1
1534599891.850.963623046875,-0.342041015625,0.052001953125,1,1,1
1534599891.850.967041015625,-0.335205078125,0.04833984375,1,1,1
1534599891.850.96923828125,-0.33154296875,0.048095703125,1,1,1
1534599891.850.96923828125,-0.33154296875,0.048095703125,1,1,1
1534599891.850.97021484375,-0.3369140625,0.05615234375,1,1,1
1534599891.850.97021484375,-0.3369140625,0.05615234375,1,1,1
1534599891.850.966064453125,-0.3388671875,0.0546875,1,1,1
1534599891.860.962646484375,-0.336669921875,0.049560546875,1,1,1
1534599891.860.962646484375,-0.336669921875,0.049560546875,1,1,1
1534599891.860.9638671875,-0.33544921875,0.051025390625,1,1,1
1534599891.860.963623046875,-0.3369140625,0.052001953125,1,1,1
1534599891.860.964111328125,-0.33642578125,0.052978515625,1,1,1
1534599891.860.964111328125,-0.33837890625,0.048583984375,1,1,1
1534599891.860.96435546875,-0.3388671875,0.05078125,1,1,1
1534599891.860.96435546875,-0.3388671875,0.05078125,1,1,1
1534599891.860.966552734375,-0.338134765625,0.05029296875,1,1,1
1534599891.860.966552734375,-0.338134765625,0.05029296875,1,1,1
1534599891.870.9677734375,-0.336181640625,0.048583984375,1,1,1
1534599891.870.966796875,-0.337158203125,0.051513671875,1,1,1
1534599891.870.966796875,-0.337158203125,0.051513671875,1,1,1
1534599891.870.96630859375,-0.338134765625,0.049072265625,1,1,1
1534599891.870.966064453125,-0.3369140625,0.04638671875,1,1,1
1534599891.870.966064453125,-0.3369140625,0.04638671875,1,1,1
1534599891.870.964599609375,-0.3349609375,0.052001953125,1,1,1
1534599891.870.962890625,-0.33544921875,0.049072265625,1,1,1
1534599891.870.963623046875,-0.33935546875,0.04541015625,1,1,1
1534599891.870.963623046875,-0.33935546875,0.04541015625,1,1,1
1534599891.870.968505859375,-0.33935546875,0.048583984375,1,1,1
1534599891.870.968505859375,-0.33935546875,0.048583984375,1,1,1
1534599891.880.9658203125,-0.33935546875,0.048828125,1,1,1
1534599891.880.9658203125,-0.33935546875,0.048828125,1,1,1
1534599891.880.9638671875,-0.340087890625,0.050048828125,1,1,1
1534599891.880.9638671875,-0.340087890625,0.050048828125,1,1,1
1534599891.880.96435546875,-0.3408203125,0.048583984375,1,1,1
1534599891.880.96435546875,-0.3408203125,0.048583984375,1,1,1
1534599891.880.96630859375,-0.33740234375,0.046875,1,1,1
1534599891.880.96630859375,-0.33740234375,0.046875,1,1,1
1534599891.880.96484375,-0.339599609375,0.050048828125,1,1,1
1534599891.880.96484375,-0.339599609375,0.050048828125,1,1,1
1534599891.880.963623046875,-0.340087890625,0.05078125,1,1,1
1534599891.880.963623046875,-0.340087890625,0.05078125,1,1,1
1534599891.880.96484375,-0.336181640625,0.0517578125,1,1,1
1534599891.880.964599609375,-0.334228515625,0.051513671875,1,1,1
1534599891.880.964599609375,-0.334228515625,0.051513671875,1,1,1
1534599891.880.965087890625,-0.3349609375,0.048095703125,1,1,1
1534599891.880.965087890625,-0.3349609375,0.048095703125,1,1,1
1534599891.880.968505859375,-0.340087890625,0.046630859375,1,1,1
1534599891.880.968505859375,-0.340087890625,0.046630859375,1,1,1
1534599891.880.96728515625,-0.33984375,0.04833984375,1,1,1
1534599891.890.96728515625,-0.33984375,0.04833984375,1,1,1
1534599891.890.965576171875,-0.334716796875,0.052490234375,1,1,1
1534599891.890.965576171875,-0.334716796875,0.052490234375,1,1,1
1534599891.890.965087890625,-0.333740234375,0.0517578125,1,1,1
1534599891.890.965087890625,-0.333740234375,0.0517578125,1,1,1
1534599891.890.96630859375,-0.337646484375,0.04736328125,1,1,1
1534599891.890.96630859375,-0.337646484375,0.04736328125,1,1,1
1534599891.890.96728515625,-0.3388671875,0.0478515625,1,1,1
1534599891.890.96728515625,-0.3388671875,0.0478515625,1,1,1
1534599891.890.96435546875,-0.33837890625,0.048095703125,1,1,1
1534599891.890.96435546875,-0.33837890625,0.048095703125,1,1,1
1534599891.890.96435546875,-0.3388671875,0.04931640625,1,1,1
1534599891.890.96435546875,-0.3388671875,0.04931640625,1,1,1
1534599891.890.964111328125,-0.334716796875,0.04541015625,1,1,1
1534599891.890.964111328125,-0.334716796875,0.04541015625,1,1,1
1534599891.890.962158203125,-0.336181640625,0.045166015625,1,1,1
1534599891.890.962158203125,-0.336181640625,0.045166015625,1,1,1
1534599891.890.961181640625,-0.340087890625,0.05224609375,1,1,1
1534599891.890.961181640625,-0.340087890625,0.05224609375,1,1,1
1534599891.890.96142578125,-0.33984375,0.052001953125,1,1,1
1534599891.90.96142578125,-0.33984375,0.052001953125,1,1,1
1534599891.90.96533203125,-0.33837890625,0.05078125,1,1,1
1534599891.90.96533203125,-0.33837890625,0.05078125,1,1,1
1534599891.90.966796875,-0.335693359375,0.047119140625,1,1,1
1534599891.90.966796875,-0.335693359375,0.047119140625,1,1,1
1534599891.90.965087890625,-0.33642578125,0.046142578125,1,1,1
1534599891.90.965087890625,-0.33642578125,0.046142578125,1,1,1
1534599891.90.9658203125,-0.336181640625,0.051025390625,1,1,1
1534599891.90.9658203125,-0.336181640625,0.051025390625,1,1,1
1534599891.90.96240234375,-0.333984375,0.0517578125,1,1,1
1534599891.90.96240234375,-0.333984375,0.0517578125,1,1,1
1534599891.90.961669921875,-0.336181640625,0.04638671875,1,1,1
1534599891.90.961669921875,-0.336181640625,0.04638671875,1,1,1
1534599891.90.965576171875,-0.33837890625,0.046875,1,1,1
1534599891.90.965576171875,-0.33837890625,0.046875,1,1,1
1534599891.90.966552734375,-0.337158203125,0.0498046875,1,1,1
1534599891.90.96435546875,-0.338134765625,0.049072265625,1,1,1
1534599891.910.964111328125,-0.33984375,0.05029296875,1,1,1
1534599891.910.965087890625,-0.336669921875,0.05029296875,1,1,1
1534599891.910.96728515625,-0.335205078125,0.047607421875,1,1,1
1534599891.910.9658203125,-0.336181640625,0.0498046875,1,1,1
1534599891.910.968505859375,-0.33740234375,0.04931640625,1,1,1
1534599891.910.97119140625,-0.336669921875,0.0546875,1,1,1
1534599891.910.966796875,-0.337158203125,0.05224609375,1,1,1
1534599891.910.963134765625,-0.3359375,0.0517578125,1,1,1
1534599891.910.963134765625,-0.3359375,0.0517578125,1,1,1
1534599891.910.96435546875,-0.3359375,0.058349609375,1,1,1
1534599891.910.96435546875,-0.3359375,0.058349609375,1,1,1
1534599891.910.96484375,-0.335693359375,0.05224609375,1,1,1
1534599891.920.96484375,-0.335693359375,0.05224609375,1,1,1
1534599891.920.961669921875,-0.337646484375,0.0478515625,1,1,1
1534599891.920.961669921875,-0.337646484375,0.0478515625,1,1,1
1534599891.920.961669921875,-0.33740234375,0.047607421875,1,1,1
1534599891.920.961669921875,-0.33740234375,0.047607421875,1,1,1
1534599891.920.961669921875,-0.333984375,0.048828125,1,1,1
1534599891.920.961669921875,-0.333984375,0.048828125,1,1,1
1534599891.920.959228515625,-0.337158203125,0.05224609375,1,1,1
1534599891.920.959228515625,-0.337158203125,0.05224609375,1,1,1
1534599891.920.964111328125,-0.3369140625,0.05078125,1,1,1
1534599891.920.964111328125,-0.3369140625,0.05078125,1,1,1
1534599891.920.968505859375,-0.336181640625,0.0498046875,1,1,1
1534599891.920.968505859375,-0.336181640625,0.0498046875,1,1,1
1534599891.920.966552734375,-0.33740234375,0.046875,1,1,1
1534599891.920.966552734375,-0.33740234375,0.046875,1,1,1
1534599891.920.967041015625,-0.338623046875,0.046630859375,1,1,1
1534599891.920.967041015625,-0.338623046875,0.046630859375,1,1,1
1534599891.920.969482421875,-0.337890625,0.04736328125,1,1,1
1534599891.920.969482421875,-0.337890625,0.04736328125,1,1,1
1534599891.920.96630859375,-0.33544921875,0.046875,1,1,1
1534599891.930.96630859375,-0.33544921875,0.046875,1,1,1
1534599891.930.96484375,-0.33447265625,0.04541015625,1,1,1
1534599891.930.96484375,-0.33447265625,0.04541015625,1,1,1
1534599891.930.967041015625,-0.336669921875,0.0439453125,1,1,1
1534599891.930.967041015625,-0.336669921875,0.0439453125,1,1,1
1534599891.930.9658203125,-0.338623046875,0.046875,1,1,1
1534599891.930.9658203125,-0.338623046875,0.046875,1,1,1
1534599891.930.9638671875,-0.335693359375,0.05126953125,1,1,1
1534599891.930.9638671875,-0.335693359375,0.05126953125,1,1,1
1534599891.930.962890625,-0.33349609375,0.052734375,1,1,1
1534599891.930.962890625,-0.33349609375,0.052734375,1,1,1
1534599891.930.9638671875,-0.335205078125,0.048095703125,1,1,1
1534599891.930.9638671875,-0.335205078125,0.048095703125,1,1,1
1534599891.930.9658203125,-0.33740234375,0.045166015625,1,1,1
1534599891.930.9658203125,-0.33740234375,0.045166015625,1,1,1
1534599891.930.966552734375,-0.334228515625,0.042724609375,1,1,1
1534599891.930.966552734375,-0.334228515625,0.042724609375,1,1,1
1534599891.930.964111328125,-0.3349609375,0.045166015625,1,1,1
1534599891.930.964111328125,-0.3349609375,0.045166015625,1,1,1
1534599891.930.96484375,-0.334716796875,0.051513671875,1,1,1
1534599891.940.96484375,-0.334716796875,0.051513671875,1,1,1
1534599891.940.9658203125,-0.333984375,0.053466796875,1,1,1
1534599891.940.9658203125,-0.333984375,0.053466796875,1,1,1
1534599891.940.96630859375,-0.337646484375,0.05029296875,1,1,1
1534599891.940.96630859375,-0.337646484375,0.05029296875,1,1,1
1534599891.940.965576171875,-0.337158203125,0.04150390625,1,1,1
1534599891.940.965576171875,-0.337158203125,0.04150390625,1,1,1
1534599891.940.965087890625,-0.33740234375,0.04248046875,1,1,1
1534599891.940.965087890625,-0.33740234375,0.04248046875,1,1,1
1534599891.940.96533203125,-0.340087890625,0.047119140625,1,1,1
1534599891.940.96533203125,-0.340087890625,0.047119140625,1,1,1
1534599891.940.965576171875,-0.337890625,0.05029296875,1,1,1
1534599891.940.965576171875,-0.337890625,0.05029296875,1,1,1
1534599891.940.96826171875,-0.33740234375,0.052001953125,1,1,1
1534599891.940.96826171875,-0.33740234375,0.052001953125,1,1,1
1534599891.940.96923828125,-0.338134765625,0.053466796875,1,1,1
1534599891.940.96923828125,-0.338134765625,0.053466796875,1,1,1
1534599891.940.970947265625,-0.335693359375,0.051025390625,1,1,1
1534599891.940.970947265625,-0.335693359375,0.051025390625,1,1,1
1534599891.940.970458984375,-0.332275390625,0.041748046875,1,1,1
1534599891.950.970458984375,-0.332275390625,0.041748046875,1,1,1
1534599891.950.966552734375,-0.33203125,0.042724609375,1,1,1
1534599891.950.965087890625,-0.337158203125,0.054931640625,1,1,1
1534599891.950.965087890625,-0.337158203125,0.054931640625,1,1,1
1534599891.950.966796875,-0.337890625,0.059326171875,1,1,1
1534599891.950.966796875,-0.337890625,0.059326171875,1,1,1
1534599891.950.965087890625,-0.3359375,0.0498046875,1,1,1
1534599891.950.965087890625,-0.3359375,0.0498046875,1,1,1
1534599891.950.965576171875,-0.334716796875,0.043701171875,1,1,1
1534599891.950.965576171875,-0.334716796875,0.043701171875,1,1,1
1534599891.950.966552734375,-0.333740234375,0.04736328125,1,1,1
1534599891.950.966552734375,-0.333740234375,0.04736328125,1,1,1
1534599891.950.962646484375,-0.334228515625,0.048583984375,1,1,1
1534599891.950.962646484375,-0.334228515625,0.048583984375,1,1,1
1534599891.950.963623046875,-0.33544921875,0.04443359375,1,1,1
1534599891.950.963623046875,-0.33544921875,0.04443359375,1,1,1
1534599891.950.965087890625,-0.3359375,0.0419921875,1,1,1
1534599891.950.965087890625,-0.3359375,0.0419921875,1,1,1
1534599891.950.966064453125,-0.33642578125,0.0439453125,1,1,1
1534599891.950.966064453125,-0.33642578125,0.0439453125,1,1,1
1534599891.960.967529296875,-0.338134765625,0.046875,1,1,1
1534599891.960.967529296875,-0.338134765625,0.046875,1,1,1
1534599891.960.967041015625,-0.339599609375,0.04931640625,1,1,1
1534599891.960.967041015625,-0.339599609375,0.04931640625,1,1,1
1534599891.960.9658203125,-0.34033203125,0.049560546875,1,1,1
1534599891.960.9658203125,-0.34033203125,0.049560546875,1,1,1
1534599891.960.96630859375,-0.33984375,0.046630859375,1,1,1
1534599891.960.96630859375,-0.33984375,0.046630859375,1,1,1
1534599891.960.964111328125,-0.340087890625,0.046630859375,1,1,1
1534599891.960.964111328125,-0.340087890625,0.046630859375,1,1,1
1534599891.960.962646484375,-0.33935546875,0.04638671875,1,1,1
1534599891.960.962646484375,-0.33935546875,0.04638671875,1,1,1
1534599891.960.96484375,-0.338623046875,0.047607421875,1,1,1
1534599891.960.96484375,-0.338623046875,0.047607421875,1,1,1
1534599891.960.963134765625,-0.339599609375,0.05419921875,1,1,1
1534599891.960.963134765625,-0.339599609375,0.05419921875,1,1,1
1534599891.960.961669921875,-0.33837890625,0.052490234375,1,1,1
1534599891.960.961669921875,-0.33837890625,0.052490234375,1,1,1
1534599891.960.96484375,-0.3369140625,0.044921875,1,1,1
1534599891.960.96484375,-0.3369140625,0.044921875,1,1,1
1534599891.970.96826171875,-0.3369140625,0.049560546875,1,1,1
1534599891.970.96826171875,-0.3369140625,0.049560546875,1,1,1
1534599891.970.97021484375,-0.33642578125,0.05419921875,1,1,1
1534599891.970.97021484375,-0.33642578125,0.05419921875,1,1,1
1534599891.970.969482421875,-0.3369140625,0.052001953125,1,1,1
1534599891.970.969482421875,-0.3369140625,0.052001953125,1,1,1
1534599891.970.965576171875,-0.334228515625,0.050048828125,1,1,1
1534599891.970.965576171875,-0.334228515625,0.050048828125,1,1,1
1534599891.970.962646484375,-0.33154296875,0.0458984375,1,1,1
1534599891.970.962646484375,-0.33154296875,0.0458984375,1,1,1
1534599891.970.963623046875,-0.33251953125,0.04541015625,1,1,1
1534599891.970.963623046875,-0.33251953125,0.04541015625,1,1,1
1534599891.970.965576171875,-0.334716796875,0.04638671875,1,1,1
1534599891.970.965576171875,-0.334716796875,0.04638671875,1,1,1
1534599891.970.968017578125,-0.3359375,0.047119140625,1,1,1
1534599891.970.968017578125,-0.3359375,0.047119140625,1,1,1
1534599891.970.968994140625,-0.33837890625,0.049560546875,1,1,1
1534599891.970.968994140625,-0.33837890625,0.049560546875,1,1,1
1534599891.970.964111328125,-0.338134765625,0.048095703125,1,1,1
1534599891.970.964111328125,-0.338134765625,0.048095703125,1,1,1
1534599891.980.96484375,-0.338623046875,0.04736328125,1,1,1
1534599891.980.96484375,-0.338623046875,0.04736328125,1,1,1
1534599891.980.966552734375,-0.33935546875,0.0478515625,1,1,1
1534599891.980.966552734375,-0.33935546875,0.0478515625,1,1,1
1534599891.980.9658203125,-0.33544921875,0.052734375,1,1,1
1534599891.990.965576171875,-0.33544921875,0.049072265625,1,1,1
1534599891.990.965087890625,-0.33203125,0.052734375,1,1,1
1534599891.990.965087890625,-0.33203125,0.052734375,1,1,1
1534599891.990.96533203125,-0.331787109375,0.052978515625,1,1,1
1534599891.990.9677734375,-0.334716796875,0.053955078125,1,1,1
1534599891.990.9677734375,-0.334716796875,0.053955078125,1,1,1
1534599891.990.96435546875,-0.333740234375,0.049072265625,1,1,1
1534599891.990.965087890625,-0.337158203125,0.0458984375,1,1,1
1534599892.00.965087890625,-0.337158203125,0.0458984375,1,1,1
1534599892.00.962890625,-0.3349609375,0.046875,1,1,1
1534599892.00.96533203125,-0.337646484375,0.050048828125,1,1,1
1534599892.00.96533203125,-0.337646484375,0.050048828125,1,1,1
1534599892.00.967529296875,-0.33740234375,0.05078125,1,1,1
1534599892.00.9658203125,-0.339111328125,0.052490234375,1,1,1
1534599892.00.965087890625,-0.3427734375,0.052734375,1,1,1
1534599892.00.965087890625,-0.3427734375,0.052734375,1,1,1
1534599892.00.966796875,-0.33984375,0.050048828125,1,1,1
1534599892.00.966796875,-0.33984375,0.050048828125,1,1,1
1534599892.00.96728515625,-0.3349609375,0.0458984375,1,1,1
1534599892.00.965576171875,-0.334716796875,0.04736328125,1,1,1
1534599892.00.965576171875,-0.334716796875,0.04736328125,1,1,1
1534599892.00.96484375,-0.33642578125,0.05322265625,1,1,1
1534599892.00.96484375,-0.33642578125,0.05322265625,1,1,1
1534599892.00.966796875,-0.337890625,0.046630859375,1,1,1
1534599892.010.96923828125,-0.33837890625,0.04248046875,1,1,1
1534599892.010.96923828125,-0.33837890625,0.04248046875,1,1,1
1534599892.010.964599609375,-0.334716796875,0.047607421875,1,1,1
1534599892.010.96435546875,-0.337158203125,0.04931640625,1,1,1
1534599892.020.96630859375,-0.33642578125,0.048828125,1,1,1
1534599892.020.96630859375,-0.33642578125,0.048828125,1,1,1
1534599892.020.9638671875,-0.33642578125,0.04833984375,1,1,1
1534599892.020.960693359375,-0.336669921875,0.046875,1,1,1
1534599892.020.960693359375,-0.336669921875,0.046875,1,1,1
1534599892.020.964111328125,-0.3359375,0.046875,1,1,1
1534599892.020.964111328125,-0.3359375,0.046875,1,1,1
1534599892.020.967041015625,-0.3349609375,0.047119140625,1,1,1
1534599892.020.96923828125,-0.334716796875,0.046630859375,1,1,1
1534599892.020.96923828125,-0.334716796875,0.046630859375,1,1,1
1534599892.020.96923828125,-0.3330078125,0.0517578125,1,1,1
1534599892.020.96728515625,-0.3349609375,0.048828125,1,1,1
1534599892.020.96728515625,-0.3349609375,0.048828125,1,1,1
1534599892.020.964111328125,-0.337158203125,0.04541015625,1,1,1
1534599892.020.964111328125,-0.337158203125,0.04541015625,1,1,1
1534599892.020.9619140625,-0.337158203125,0.047607421875,1,1,1
1534599892.030.960693359375,-0.33544921875,0.046630859375,1,1,1
1534599892.030.963623046875,-0.3349609375,0.0498046875,1,1,1
1534599892.030.966552734375,-0.337890625,0.0478515625,1,1,1
1534599892.030.966552734375,-0.337890625,0.0478515625,1,1,1
1534599892.030.9658203125,-0.339599609375,0.045166015625,1,1,1
1534599892.030.96484375,-0.33642578125,0.04736328125,1,1,1
1534599892.030.96484375,-0.33642578125,0.04736328125,1,1,1
1534599892.030.967529296875,-0.3369140625,0.04931640625,1,1,1
1534599892.030.967529296875,-0.3369140625,0.04931640625,1,1,1
1534599892.030.96728515625,-0.337158203125,0.047607421875,1,1,1
1534599892.030.96728515625,-0.337158203125,0.047607421875,1,1,1
1534599892.030.9638671875,-0.3330078125,0.0478515625,1,1,1
1534599892.030.9638671875,-0.3330078125,0.0478515625,1,1,1
1534599892.030.963134765625,-0.333740234375,0.048828125,1,1,1
1534599892.030.963134765625,-0.333740234375,0.048828125,1,1,1
1534599892.040.965087890625,-0.339599609375,0.05029296875,1,1,1
1534599892.040.965087890625,-0.339599609375,0.05029296875,1,1,1
1534599892.040.965087890625,-0.33837890625,0.051025390625,1,1,1
1534599892.040.965087890625,-0.33837890625,0.051025390625,1,1,1
1534599892.040.9658203125,-0.335205078125,0.052978515625,1,1,1
1534599892.040.9658203125,-0.335205078125,0.052978515625,1,1,1
1534599892.040.967529296875,-0.3349609375,0.052978515625,1,1,1
1534599892.040.966064453125,-0.335205078125,0.05078125,1,1,1
1534599892.040.966064453125,-0.335205078125,0.05078125,1,1,1
1534599892.040.965576171875,-0.33447265625,0.04736328125,1,1,1
1534599892.040.965576171875,-0.33447265625,0.04736328125,1,1,1
1534599892.040.96435546875,-0.334228515625,0.046630859375,1,1,1
1534599892.040.96435546875,-0.334228515625,0.046630859375,1,1,1
1534599892.040.963134765625,-0.338134765625,0.046875,1,1,1
1534599892.040.963134765625,-0.338134765625,0.046875,1,1,1
1534599892.040.963623046875,-0.339111328125,0.045166015625,1,1,1
1534599892.040.963623046875,-0.339111328125,0.045166015625,1,1,1
1534599892.040.963623046875,-0.337646484375,0.052490234375,1,1,1
1534599892.050.966796875,-0.336669921875,0.056396484375,1,1,1
1534599892.050.96728515625,-0.33642578125,0.0546875,1,1,1
1534599892.050.966064453125,-0.3359375,0.05078125,1,1,1
1534599892.050.966064453125,-0.3359375,0.05078125,1,1,1
1534599892.050.965087890625,-0.337890625,0.047607421875,1,1,1
1534599892.050.965087890625,-0.337890625,0.047607421875,1,1,1
1534599892.050.96240234375,-0.340087890625,0.0498046875,1,1,1
1534599892.050.96240234375,-0.340087890625,0.0498046875,1,1,1
1534599892.050.9619140625,-0.3388671875,0.05419921875,1,1,1
1534599892.050.9619140625,-0.3388671875,0.05419921875,1,1,1
1534599892.050.96630859375,-0.3388671875,0.05322265625,1,1,1
1534599892.050.96630859375,-0.3388671875,0.05322265625,1,1,1
1534599892.050.966064453125,-0.3408203125,0.049072265625,1,1,1
1534599892.050.966064453125,-0.3408203125,0.049072265625,1,1,1
1534599892.050.963134765625,-0.34033203125,0.0458984375,1,1,1
1534599892.050.963134765625,-0.34033203125,0.0458984375,1,1,1
1534599892.050.9619140625,-0.3388671875,0.045166015625,1,1,1
1534599892.060.9619140625,-0.3388671875,0.045166015625,1,1,1
1534599892.060.962890625,-0.340087890625,0.0517578125,1,1,1
1534599892.060.962890625,-0.340087890625,0.0517578125,1,1,1
1534599892.060.96533203125,-0.338623046875,0.054931640625,1,1,1
1534599892.060.96533203125,-0.338623046875,0.054931640625,1,1,1
1534599892.060.965087890625,-0.335693359375,0.048583984375,1,1,1
1534599892.060.965087890625,-0.335693359375,0.048583984375,1,1,1
1534599892.060.9638671875,-0.33544921875,0.044921875,1,1,1
1534599892.060.9638671875,-0.33544921875,0.044921875,1,1,1
1534599892.060.96533203125,-0.337158203125,0.0478515625,1,1,1
1534599892.060.96533203125,-0.337158203125,0.0478515625,1,1,1
1534599892.060.965576171875,-0.337646484375,0.052734375,1,1,1
1534599892.060.965576171875,-0.337646484375,0.052734375,1,1,1
1534599892.060.967041015625,-0.336669921875,0.052734375,1,1,1
1534599892.060.967041015625,-0.336669921875,0.052734375,1,1,1
1534599892.060.9658203125,-0.334716796875,0.050537109375,1,1,1
1534599892.060.9658203125,-0.334716796875,0.050537109375,1,1,1
1534599892.060.9619140625,-0.335693359375,0.050048828125,1,1,1
1534599892.060.9619140625,-0.335693359375,0.050048828125,1,1,1
1534599892.060.964599609375,-0.33740234375,0.048583984375,1,1,1
1534599892.070.964599609375,-0.33740234375,0.048583984375,1,1,1
1534599892.070.9658203125,-0.34033203125,0.0478515625,1,1,1
1534599892.070.9658203125,-0.34033203125,0.0478515625,1,1,1
1534599892.070.964599609375,-0.3388671875,0.052978515625,1,1,1
1534599892.070.964599609375,-0.3388671875,0.052978515625,1,1,1
1534599892.070.96728515625,-0.333740234375,0.05712890625,1,1,1
1534599892.070.96728515625,-0.333740234375,0.05712890625,1,1,1
1534599892.070.967041015625,-0.33349609375,0.047119140625,1,1,1
1534599892.070.967041015625,-0.33349609375,0.047119140625,1,1,1
1534599892.070.963134765625,-0.335205078125,0.041748046875,1,1,1
1534599892.070.963134765625,-0.335205078125,0.041748046875,1,1,1
1534599892.070.9638671875,-0.335205078125,0.04931640625,1,1,1
1534599892.070.9638671875,-0.335205078125,0.04931640625,1,1,1
1534599892.070.96484375,-0.33544921875,0.04833984375,1,1,1
1534599892.070.96484375,-0.33544921875,0.04833984375,1,1,1
1534599892.070.96240234375,-0.33740234375,0.047119140625,1,1,1
1534599892.070.96240234375,-0.33740234375,0.047119140625,1,1,1
1534599892.070.96337890625,-0.33740234375,0.052490234375,1,1,1
1534599892.070.96337890625,-0.33740234375,0.052490234375,1,1,1
1534599892.080.96630859375,-0.33544921875,0.049072265625,1,1,1
1534599892.080.965576171875,-0.333984375,0.04345703125,1,1,1
1534599892.080.965576171875,-0.333984375,0.04345703125,1,1,1
1534599892.080.962890625,-0.3330078125,0.04638671875,1,1,1
1534599892.080.962890625,-0.3330078125,0.04638671875,1,1,1
1534599892.080.963134765625,-0.335693359375,0.05419921875,1,1,1
1534599892.080.963134765625,-0.335693359375,0.05419921875,1,1,1
1534599892.080.966552734375,-0.3369140625,0.05419921875,1,1,1
1534599892.080.966552734375,-0.3369140625,0.05419921875,1,1,1
1534599892.080.968994140625,-0.333740234375,0.050537109375,1,1,1
1534599892.080.968994140625,-0.333740234375,0.050537109375,1,1,1
1534599892.080.96875,-0.335205078125,0.05224609375,1,1,1
1534599892.080.96875,-0.335205078125,0.05224609375,1,1,1
1534599892.080.963623046875,-0.336669921875,0.0556640625,1,1,1
1534599892.080.963623046875,-0.336669921875,0.0556640625,1,1,1
1534599892.080.961181640625,-0.335693359375,0.054443359375,1,1,1
1534599892.080.961181640625,-0.335693359375,0.054443359375,1,1,1
1534599892.080.965576171875,-0.333740234375,0.05322265625,1,1,1
1534599892.080.965576171875,-0.333740234375,0.05322265625,1,1,1
1534599892.080.966796875,-0.33642578125,0.054443359375,1,1,1
1534599892.090.966796875,-0.33642578125,0.054443359375,1,1,1
1534599892.090.964111328125,-0.339599609375,0.05126953125,1,1,1
1534599892.090.964111328125,-0.339599609375,0.05126953125,1,1,1
1534599892.090.962646484375,-0.33837890625,0.046630859375,1,1,1
1534599892.090.962646484375,-0.33837890625,0.046630859375,1,1,1
1534599892.090.96337890625,-0.337158203125,0.048583984375,1,1,1
1534599892.090.96337890625,-0.337158203125,0.048583984375,1,1,1
1534599892.090.966796875,-0.33642578125,0.047607421875,1,1,1
1534599892.090.966796875,-0.33642578125,0.047607421875,1,1,1
1534599892.090.96826171875,-0.33642578125,0.046142578125,1,1,1
1534599892.090.96826171875,-0.33642578125,0.046142578125,1,1,1
1534599892.090.963134765625,-0.338623046875,0.0478515625,1,1,1
1534599892.090.963134765625,-0.338623046875,0.0478515625,1,1,1
1534599892.090.963623046875,-0.33740234375,0.0458984375,1,1,1
1534599892.090.963623046875,-0.33740234375,0.0458984375,1,1,1
1534599892.090.9677734375,-0.335205078125,0.050048828125,1,1,1
1534599892.090.9677734375,-0.335205078125,0.050048828125,1,1,1
1534599892.090.966064453125,-0.33837890625,0.049560546875,1,1,1
1534599892.090.966064453125,-0.33837890625,0.049560546875,1,1,1
1534599892.090.966552734375,-0.3369140625,0.049072265625,1,1,1
1534599892.10.966552734375,-0.3369140625,0.049072265625,1,1,1
1534599892.10.96728515625,-0.33544921875,0.05078125,1,1,1
1534599892.10.96728515625,-0.33544921875,0.05078125,1,1,1
1534599892.10.967041015625,-0.3369140625,0.046142578125,1,1,1
1534599892.10.967041015625,-0.3369140625,0.046142578125,1,1,1
1534599892.10.96630859375,-0.338623046875,0.04345703125,1,1,1
1534599892.10.96630859375,-0.338623046875,0.04345703125,1,1,1
1534599892.10.968505859375,-0.337890625,0.048828125,1,1,1
1534599892.10.968505859375,-0.337890625,0.048828125,1,1,1
1534599892.10.972412109375,-0.338134765625,0.053955078125,1,1,1
1534599892.10.972412109375,-0.338134765625,0.053955078125,1,1,1
1534599892.10.96923828125,-0.339599609375,0.05322265625,1,1,1
1534599892.10.96923828125,-0.339599609375,0.05322265625,1,1,1
1534599892.10.96435546875,-0.3359375,0.0546875,1,1,1
1534599892.10.96435546875,-0.3359375,0.0546875,1,1,1
1534599892.10.96240234375,-0.3349609375,0.052001953125,1,1,1
1534599892.10.963134765625,-0.337158203125,0.048583984375,1,1,1
1534599892.10.963134765625,-0.337158203125,0.048583984375,1,1,1
1534599892.10.96533203125,-0.337158203125,0.049072265625,1,1,1
1534599892.110.96533203125,-0.337158203125,0.049072265625,1,1,1
1534599892.110.96728515625,-0.336669921875,0.049560546875,1,1,1
1534599892.110.96728515625,-0.336669921875,0.049560546875,1,1,1
1534599892.110.969970703125,-0.337890625,0.050048828125,1,1,1
1534599892.110.969970703125,-0.337890625,0.050048828125,1,1,1
1534599892.110.967529296875,-0.338134765625,0.048583984375,1,1,1
1534599892.110.965087890625,-0.341796875,0.0478515625,1,1,1
1534599892.110.965087890625,-0.341796875,0.0478515625,1,1,1
1534599892.110.9658203125,-0.34130859375,0.047119140625,1,1,1
1534599892.110.9658203125,-0.34130859375,0.047119140625,1,1,1
1534599892.110.966552734375,-0.3369140625,0.048095703125,1,1,1
1534599892.110.966552734375,-0.3369140625,0.048095703125,1,1,1
1534599892.110.965576171875,-0.33935546875,0.04736328125,1,1,1
1534599892.110.965576171875,-0.33935546875,0.04736328125,1,1,1
1534599892.110.964599609375,-0.338134765625,0.048583984375,1,1,1
1534599892.110.964599609375,-0.338134765625,0.048583984375,1,1,1
1534599892.110.963134765625,-0.336669921875,0.05078125,1,1,1
1534599892.110.963134765625,-0.336669921875,0.05078125,1,1,1
1534599892.110.9619140625,-0.337646484375,0.04833984375,1,1,1
1534599892.120.9619140625,-0.337646484375,0.04833984375,1,1,1
1534599892.120.962646484375,-0.33837890625,0.0517578125,1,1,1
1534599892.120.962646484375,-0.33837890625,0.0517578125,1,1,1
1534599892.120.96240234375,-0.3388671875,0.05126953125,1,1,1
1534599892.120.96240234375,-0.3388671875,0.05126953125,1,1,1
1534599892.120.965087890625,-0.33837890625,0.050048828125,1,1,1
1534599892.120.965087890625,-0.33837890625,0.050048828125,1,1,1
1534599892.120.96533203125,-0.3369140625,0.053466796875,1,1,1
1534599892.120.96533203125,-0.3369140625,0.053466796875,1,1,1
1534599892.120.96533203125,-0.337646484375,0.053466796875,1,1,1
1534599892.120.96533203125,-0.337646484375,0.053466796875,1,1,1
1534599892.120.965087890625,-0.339111328125,0.052978515625,1,1,1
1534599892.120.965087890625,-0.339111328125,0.052978515625,1,1,1
1534599892.120.964111328125,-0.3388671875,0.05322265625,1,1,1
1534599892.130.966796875,-0.332763671875,0.0478515625,1,1,1
1534599892.130.964599609375,-0.338134765625,0.044189453125,1,1,1
1534599892.130.964111328125,-0.337158203125,0.048583984375,1,1,1
1534599892.130.968505859375,-0.3369140625,0.05224609375,1,1,1
1534599892.130.968505859375,-0.3369140625,0.05224609375,1,1,1
1534599892.130.968505859375,-0.333984375,0.051513671875,1,1,1
1534599892.130.96630859375,-0.3359375,0.047119140625,1,1,1
1534599892.130.964599609375,-0.34033203125,0.0439453125,1,1,1
1534599892.140.966064453125,-0.337890625,0.045166015625,1,1,1
1534599892.140.966064453125,-0.340087890625,0.046630859375,1,1,1
1534599892.140.96630859375,-0.33935546875,0.048583984375,1,1,1
1534599892.140.96728515625,-0.338134765625,0.04736328125,1,1,1
1534599892.140.96728515625,-0.338134765625,0.04736328125,1,1,1
1534599892.140.967529296875,-0.336181640625,0.044677734375,1,1,1
1534599892.140.967529296875,-0.336181640625,0.044677734375,1,1,1
1534599892.140.966064453125,-0.336181640625,0.0478515625,1,1,1
1534599892.140.96533203125,-0.33740234375,0.04736328125,1,1,1
1534599892.140.96533203125,-0.33740234375,0.04736328125,1,1,1
1534599892.140.967529296875,-0.3369140625,0.04443359375,1,1,1
1534599892.140.967529296875,-0.336669921875,0.04443359375,1,1,1
1534599892.150.967529296875,-0.336669921875,0.04443359375,1,1,1
1534599892.150.964599609375,-0.335205078125,0.04541015625,1,1,1
1534599892.150.96533203125,-0.337890625,0.053466796875,1,1,1
1534599892.150.962890625,-0.337158203125,0.053466796875,1,1,1
1534599892.150.9609375,-0.336669921875,0.04931640625,1,1,1
1534599892.150.9609375,-0.336669921875,0.04931640625,1,1,1
1534599892.150.962646484375,-0.338134765625,0.04736328125,1,1,1
1534599892.150.963623046875,-0.336181640625,0.04638671875,1,1,1
1534599892.150.963623046875,-0.336181640625,0.04638671875,1,1,1
1534599892.150.965087890625,-0.337158203125,0.044921875,1,1,1
1534599892.160.965087890625,-0.337158203125,0.044921875,1,1,1
1534599892.160.966796875,-0.33837890625,0.044921875,1,1,1
1534599892.160.96630859375,-0.34033203125,0.050537109375,1,1,1
1534599892.160.96630859375,-0.34033203125,0.050537109375,1,1,1
1534599892.160.964599609375,-0.343505859375,0.054931640625,1,1,1
1534599892.160.962646484375,-0.339599609375,0.05126953125,1,1,1
1534599892.160.962646484375,-0.339599609375,0.05126953125,1,1,1
1534599892.160.96240234375,-0.336181640625,0.04638671875,1,1,1
1534599892.160.96240234375,-0.336181640625,0.04638671875,1,1,1
1534599892.160.964599609375,-0.337890625,0.044677734375,1,1,1
1534599892.170.966796875,-0.338134765625,0.051025390625,1,1,1
1534599892.170.9638671875,-0.338134765625,0.04345703125,1,1,1
1534599892.170.9638671875,-0.338134765625,0.04345703125,1,1,1
1534599892.170.963134765625,-0.33837890625,0.047607421875,1,1,1
1534599892.170.964111328125,-0.334228515625,0.049072265625,1,1,1
1534599892.170.964111328125,-0.334228515625,0.049072265625,1,1,1
1534599892.170.966796875,-0.332763671875,0.044189453125,1,1,1
1534599892.170.9677734375,-0.331787109375,0.05029296875,1,1,1
1534599892.170.9677734375,-0.331787109375,0.05029296875,1,1,1
1534599892.170.96728515625,-0.3359375,0.04931640625,1,1,1
1534599892.170.96728515625,-0.3359375,0.04931640625,1,1,1
1534599892.170.9638671875,-0.3388671875,0.04833984375,1,1,1
1534599892.170.96337890625,-0.33740234375,0.05029296875,1,1,1
1534599892.170.96337890625,-0.33740234375,0.05029296875,1,1,1
1534599892.170.963623046875,-0.339599609375,0.046142578125,1,1,1
1534599892.180.965087890625,-0.342041015625,0.04541015625,1,1,1
1534599892.180.965087890625,-0.342041015625,0.04541015625,1,1,1
1534599892.180.96435546875,-0.3388671875,0.049072265625,1,1,1
1534599892.180.96435546875,-0.3388671875,0.049072265625,1,1,1
1534599892.180.964599609375,-0.3330078125,0.050048828125,1,1,1
1534599892.180.964599609375,-0.3330078125,0.050048828125,1,1,1
1534599892.180.96826171875,-0.33251953125,0.04931640625,1,1,1
1534599892.180.96826171875,-0.33251953125,0.04931640625,1,1,1
1534599892.180.967529296875,-0.337646484375,0.047119140625,1,1,1
1534599892.180.96728515625,-0.337158203125,0.046630859375,1,1,1
1534599892.180.96728515625,-0.337158203125,0.046630859375,1,1,1
1534599892.180.967041015625,-0.335205078125,0.049072265625,1,1,1
1534599892.180.967041015625,-0.335205078125,0.049072265625,1,1,1
1534599892.180.963134765625,-0.33837890625,0.051513671875,1,1,1
1534599892.180.963134765625,-0.33837890625,0.051513671875,1,1,1
1534599892.190.964599609375,-0.33984375,0.0498046875,1,1,1
1534599892.190.964599609375,-0.33984375,0.0498046875,1,1,1
1534599892.190.967041015625,-0.34130859375,0.0498046875,1,1,1
1534599892.190.967041015625,-0.34130859375,0.0498046875,1,1,1
1534599892.190.96630859375,-0.340576171875,0.044677734375,1,1,1
1534599892.190.96630859375,-0.340576171875,0.044677734375,1,1,1
1534599892.190.966064453125,-0.336181640625,0.04345703125,1,1,1
1534599892.190.96533203125,-0.33837890625,0.04736328125,1,1,1
1534599892.190.96435546875,-0.33984375,0.05224609375,1,1,1
1534599892.190.96435546875,-0.33984375,0.05224609375,1,1,1
1534599892.190.96240234375,-0.33837890625,0.052734375,1,1,1
1534599892.190.96240234375,-0.33837890625,0.052734375,1,1,1
1534599892.190.964599609375,-0.33837890625,0.05126953125,1,1,1
1534599892.190.964599609375,-0.33837890625,0.05126953125,1,1,1
1534599892.190.964599609375,-0.33837890625,0.05126953125,1,1,1
1534599892.190.966796875,-0.33544921875,0.051513671875,1,1,1
1534599892.190.964599609375,-0.33544921875,0.047119140625,1,1,1
1534599892.190.964599609375,-0.33544921875,0.047119140625,1,1,1
1534599892.20.9638671875,-0.335693359375,0.046630859375,1,1,1
1534599892.20.9638671875,-0.335693359375,0.046630859375,1,1,1
1534599892.20.966064453125,-0.33251953125,0.048095703125,1,1,1
1534599892.20.966064453125,-0.33251953125,0.048095703125,1,1,1
1534599892.20.96728515625,-0.333984375,0.05029296875,1,1,1
1534599892.20.96728515625,-0.333984375,0.05029296875,1,1,1
1534599892.20.96484375,-0.337158203125,0.04931640625,1,1,1
1534599892.20.96484375,-0.337158203125,0.04931640625,1,1,1
1534599892.20.963623046875,-0.33837890625,0.049560546875,1,1,1
1534599892.20.963623046875,-0.33837890625,0.049560546875,1,1,1
1534599892.20.965087890625,-0.334228515625,0.050537109375,1,1,1
1534599892.20.965087890625,-0.334228515625,0.050537109375,1,1,1
1534599892.20.96484375,-0.33447265625,0.049072265625,1,1,1
1534599892.20.96484375,-0.33447265625,0.049072265625,1,1,1
1534599892.20.96630859375,-0.337890625,0.047119140625,1,1,1
1534599892.20.96630859375,-0.337890625,0.047119140625,1,1,1
1534599892.20.968505859375,-0.33837890625,0.0478515625,1,1,1
1534599892.20.967529296875,-0.33837890625,0.05029296875,1,1,1
1534599892.20.967529296875,-0.33837890625,0.05029296875,1,1,1
1534599892.210.96630859375,-0.33544921875,0.05078125,1,1,1
1534599892.210.96630859375,-0.33544921875,0.05078125,1,1,1
1534599892.210.96435546875,-0.33544921875,0.048583984375,1,1,1
1534599892.210.96435546875,-0.33544921875,0.048583984375,1,1,1
1534599892.210.964599609375,-0.334228515625,0.046142578125,1,1,1
1534599892.210.964599609375,-0.334228515625,0.046142578125,1,1,1
1534599892.210.966552734375,-0.33349609375,0.04541015625,1,1,1
1534599892.210.966552734375,-0.33349609375,0.04541015625,1,1,1
1534599892.210.968017578125,-0.336181640625,0.047607421875,1,1,1
1534599892.210.968017578125,-0.336181640625,0.047607421875,1,1,1
1534599892.210.968505859375,-0.33544921875,0.045654296875,1,1,1
1534599892.210.968505859375,-0.33544921875,0.045654296875,1,1,1
1534599892.210.966064453125,-0.33349609375,0.04248046875,1,1,1
1534599892.210.966064453125,-0.33349609375,0.04248046875,1,1,1
1534599892.210.962890625,-0.3359375,0.04638671875,1,1,1
1534599892.210.962890625,-0.3359375,0.04638671875,1,1,1
1534599892.210.9638671875,-0.3388671875,0.05029296875,1,1,1
1534599892.210.9638671875,-0.3388671875,0.05029296875,1,1,1
1534599892.210.965087890625,-0.340087890625,0.050537109375,1,1,1
1534599892.210.965087890625,-0.340087890625,0.050537109375,1,1,1
1534599892.220.962646484375,-0.340087890625,0.04736328125,1,1,1
1534599892.220.962646484375,-0.340087890625,0.04736328125,1,1,1
1534599892.220.9638671875,-0.33837890625,0.04833984375,1,1,1
1534599892.220.9638671875,-0.33837890625,0.04833984375,1,1,1
1534599892.220.96630859375,-0.336669921875,0.051513671875,1,1,1
1534599892.220.96630859375,-0.336669921875,0.051513671875,1,1,1
1534599892.220.967041015625,-0.335693359375,0.05419921875,1,1,1
1534599892.220.967041015625,-0.335693359375,0.05419921875,1,1,1
1534599892.220.967041015625,-0.33642578125,0.051025390625,1,1,1
1534599892.220.967041015625,-0.33642578125,0.051025390625,1,1,1
1534599892.220.96484375,-0.333984375,0.04248046875,1,1,1
1534599892.220.96484375,-0.333984375,0.04248046875,1,1,1
1534599892.220.965087890625,-0.333251953125,0.043701171875,1,1,1
1534599892.220.965087890625,-0.333251953125,0.043701171875,1,1,1
1534599892.220.96435546875,-0.336181640625,0.051025390625,1,1,1
1534599892.220.96435546875,-0.336181640625,0.051025390625,1,1,1
1534599892.220.966064453125,-0.3369140625,0.053466796875,1,1,1
1534599892.220.966064453125,-0.3369140625,0.053466796875,1,1,1
1534599892.220.9697265625,-0.33740234375,0.05419921875,1,1,1
1534599892.220.9697265625,-0.33740234375,0.05419921875,1,1,1
1534599892.220.968505859375,-0.336669921875,0.0537109375,1,1,1
1534599892.230.968505859375,-0.336669921875,0.0537109375,1,1,1
1534599892.230.966064453125,-0.336181640625,0.0498046875,1,1,1
1534599892.230.966064453125,-0.336181640625,0.0498046875,1,1,1
1534599892.230.968505859375,-0.3349609375,0.04931640625,1,1,1
1534599892.230.968505859375,-0.3349609375,0.04931640625,1,1,1
1534599892.230.97021484375,-0.333740234375,0.05078125,1,1,1
1534599892.230.97021484375,-0.333740234375,0.05078125,1,1,1
1534599892.230.9677734375,-0.335693359375,0.045166015625,1,1,1
1534599892.230.9677734375,-0.335693359375,0.045166015625,1,1,1
1534599892.230.965576171875,-0.336669921875,0.049560546875,1,1,1
1534599892.230.965576171875,-0.336669921875,0.049560546875,1,1,1
1534599892.230.966552734375,-0.337890625,0.058349609375,1,1,1
1534599892.230.966552734375,-0.337890625,0.058349609375,1,1,1
1534599892.230.969482421875,-0.337890625,0.0517578125,1,1,1
1534599892.230.969482421875,-0.337890625,0.0517578125,1,1,1
1534599892.230.967529296875,-0.336181640625,0.053955078125,1,1,1
1534599892.230.967529296875,-0.336181640625,0.053955078125,1,1,1
1534599892.230.96826171875,-0.336669921875,0.053955078125,1,1,1
1534599892.230.96826171875,-0.336669921875,0.053955078125,1,1,1
1534599892.230.967041015625,-0.337158203125,0.049072265625,1,1,1
1534599892.240.967041015625,-0.337158203125,0.049072265625,1,1,1
1534599892.240.964111328125,-0.338134765625,0.0546875,1,1,1
1534599892.240.964111328125,-0.338134765625,0.0546875,1,1,1
1534599892.240.96337890625,-0.33837890625,0.0546875,1,1,1
1534599892.240.962646484375,-0.338134765625,0.055908203125,1,1,1
1534599892.240.962646484375,-0.338134765625,0.055908203125,1,1,1
1534599892.240.96337890625,-0.336181640625,0.052734375,1,1,1
1534599892.240.96337890625,-0.336181640625,0.052734375,1,1,1
1534599892.240.968017578125,-0.335205078125,0.04931640625,1,1,1
1534599892.240.968017578125,-0.335205078125,0.04931640625,1,1,1
1534599892.240.968505859375,-0.33935546875,0.04931640625,1,1,1
1534599892.240.968505859375,-0.33935546875,0.04931640625,1,1,1
1534599892.240.9658203125,-0.3388671875,0.041748046875,1,1,1
1534599892.240.9658203125,-0.3388671875,0.041748046875,1,1,1
1534599892.240.965576171875,-0.335693359375,0.04248046875,1,1,1
1534599892.240.965576171875,-0.335693359375,0.04248046875,1,1,1
1534599892.240.96484375,-0.3349609375,0.0458984375,1,1,1
1534599892.240.96484375,-0.3349609375,0.0458984375,1,1,1
1534599892.240.966552734375,-0.33642578125,0.04736328125,1,1,1
1534599892.250.966552734375,-0.33642578125,0.04736328125,1,1,1
1534599892.250.9677734375,-0.336669921875,0.05029296875,1,1,1
1534599892.250.9677734375,-0.336669921875,0.05029296875,1,1,1
1534599892.250.967041015625,-0.3359375,0.05078125,1,1,1
1534599892.250.967041015625,-0.3359375,0.05078125,1,1,1
1534599892.250.9638671875,-0.33544921875,0.051513671875,1,1,1
1534599892.250.9638671875,-0.33544921875,0.051513671875,1,1,1
1534599892.250.962158203125,-0.334716796875,0.0478515625,1,1,1
1534599892.250.962158203125,-0.334716796875,0.0478515625,1,1,1
1534599892.250.962158203125,-0.33740234375,0.04736328125,1,1,1
1534599892.250.962158203125,-0.33740234375,0.04736328125,1,1,1
1534599892.250.964599609375,-0.336181640625,0.052001953125,1,1,1
1534599892.250.964599609375,-0.336181640625,0.052001953125,1,1,1
1534599892.250.96630859375,-0.33544921875,0.052734375,1,1,1
1534599892.250.96630859375,-0.33544921875,0.052734375,1,1,1
1534599892.250.96630859375,-0.337646484375,0.05078125,1,1,1
1534599892.250.96630859375,-0.337646484375,0.05078125,1,1,1
1534599892.250.966552734375,-0.33935546875,0.047119140625,1,1,1
1534599892.250.966552734375,-0.33935546875,0.047119140625,1,1,1
1534599892.250.964599609375,-0.3388671875,0.052001953125,1,1,1
1534599892.260.964599609375,-0.3388671875,0.052001953125,1,1,1
1534599892.260.96435546875,-0.335693359375,0.055908203125,1,1,1
1534599892.260.96435546875,-0.335693359375,0.055908203125,1,1,1
1534599892.260.96484375,-0.33544921875,0.049072265625,1,1,1
1534599892.260.96484375,-0.33544921875,0.049072265625,1,1,1
1534599892.260.9638671875,-0.336669921875,0.04248046875,1,1,1
1534599892.260.9638671875,-0.336669921875,0.04248046875,1,1,1
1534599892.260.9599609375,-0.338623046875,0.045166015625,1,1,1
1534599892.260.9599609375,-0.338623046875,0.045166015625,1,1,1
1534599892.260.9609375,-0.33642578125,0.0498046875,1,1,1
1534599892.260.9609375,-0.33642578125,0.0498046875,1,1,1
1534599892.260.9658203125,-0.3349609375,0.05322265625,1,1,1
1534599892.260.9658203125,-0.3349609375,0.05322265625,1,1,1
1534599892.260.965576171875,-0.3359375,0.052001953125,1,1,1
1534599892.260.965576171875,-0.3359375,0.052001953125,1,1,1
1534599892.260.966552734375,-0.33349609375,0.044921875,1,1,1
1534599892.260.966552734375,-0.33349609375,0.044921875,1,1,1
1534599892.260.968017578125,-0.33447265625,0.044189453125,1,1,1
1534599892.260.968017578125,-0.33447265625,0.044189453125,1,1,1
1534599892.260.967041015625,-0.33740234375,0.045166015625,1,1,1
1534599892.270.967041015625,-0.33740234375,0.045166015625,1,1,1
1534599892.270.966796875,-0.33544921875,0.044921875,1,1,1
1534599892.270.966796875,-0.33544921875,0.044921875,1,1,1
1534599892.270.967041015625,-0.33544921875,0.04638671875,1,1,1
1534599892.270.967041015625,-0.33544921875,0.04638671875,1,1,1
1534599892.270.9658203125,-0.336181640625,0.0498046875,1,1,1
1534599892.270.9658203125,-0.336181640625,0.0498046875,1,1,1
1534599892.270.966064453125,-0.330322265625,0.04931640625,1,1,1
1534599892.270.966064453125,-0.330322265625,0.04931640625,1,1,1
1534599892.270.96533203125,-0.3310546875,0.048583984375,1,1,1
1534599892.270.961181640625,-0.333740234375,0.049072265625,1,1,1
1534599892.270.961181640625,-0.333740234375,0.049072265625,1,1,1
1534599892.270.961669921875,-0.33349609375,0.0498046875,1,1,1
1534599892.270.961669921875,-0.33349609375,0.0498046875,1,1,1
1534599892.270.965087890625,-0.337890625,0.046630859375,1,1,1
1534599892.270.965087890625,-0.337890625,0.046630859375,1,1,1
1534599892.270.963134765625,-0.337646484375,0.045166015625,1,1,1
1534599892.270.963134765625,-0.337646484375,0.045166015625,1,1,1
1534599892.270.96337890625,-0.336669921875,0.043701171875,1,1,1
1534599892.280.96337890625,-0.336669921875,0.043701171875,1,1,1
1534599892.280.966064453125,-0.3388671875,0.04541015625,1,1,1
1534599892.280.966064453125,-0.3388671875,0.04541015625,1,1,1
1534599892.280.968017578125,-0.33935546875,0.05078125,1,1,1
1534599892.280.968017578125,-0.33935546875,0.05078125,1,1,1
1534599892.280.96630859375,-0.3369140625,0.044677734375,1,1,1
1534599892.280.96630859375,-0.3369140625,0.044677734375,1,1,1
1534599892.280.963623046875,-0.33349609375,0.043212890625,1,1,1
1534599892.280.963623046875,-0.33349609375,0.043212890625,1,1,1
1534599892.280.96630859375,-0.332763671875,0.050537109375,1,1,1
1534599892.280.96630859375,-0.332763671875,0.050537109375,1,1,1
1534599892.280.9658203125,-0.337646484375,0.05224609375,1,1,1
1534599892.280.9658203125,-0.337646484375,0.05224609375,1,1,1
1534599892.280.96435546875,-0.339111328125,0.045654296875,1,1,1
1534599892.290.96435546875,-0.339111328125,0.045654296875,1,1,1
1534599892.290.965087890625,-0.3388671875,0.051025390625,1,1,1
1534599892.290.96337890625,-0.337646484375,0.050537109375,1,1,1
1534599892.290.96484375,-0.339111328125,0.05322265625,1,1,1
1534599892.30.96484375,-0.339111328125,0.05322265625,1,1,1
1534599892.30.96533203125,-0.336181640625,0.048583984375,1,1,1
1534599892.30.96533203125,-0.336181640625,0.048583984375,1,1,1
1534599892.30.967041015625,-0.336181640625,0.045654296875,1,1,1
1534599892.30.964599609375,-0.3369140625,0.045654296875,1,1,1
1534599892.30.964599609375,-0.3369140625,0.045654296875,1,1,1
1534599892.30.963623046875,-0.33740234375,0.046630859375,1,1,1
1534599892.30.96484375,-0.337158203125,0.04931640625,1,1,1
1534599892.30.96484375,-0.337158203125,0.04931640625,1,1,1
1534599892.30.961669921875,-0.338134765625,0.051513671875,1,1,1
1534599892.30.961181640625,-0.3388671875,0.05322265625,1,1,1
1534599892.30.961181640625,-0.3388671875,0.05322265625,1,1,1
1534599892.30.96533203125,-0.337890625,0.05712890625,1,1,1
1534599892.30.96533203125,-0.337890625,0.05712890625,1,1,1
1534599892.30.9697265625,-0.3349609375,0.0576171875,1,1,1
1534599892.310.966064453125,-0.332763671875,0.06005859375,1,1,1
1534599892.310.96435546875,-0.337890625,0.049072265625,1,1,1
1534599892.310.961181640625,-0.33349609375,0.0517578125,1,1,1
1534599892.310.961181640625,-0.33349609375,0.0517578125,1,1,1
1534599892.310.961669921875,-0.332275390625,0.048095703125,1,1,1
1534599892.310.966552734375,-0.333251953125,0.05224609375,1,1,1
1534599892.310.966552734375,-0.333251953125,0.05224609375,1,1,1
1534599892.310.96875,-0.334228515625,0.056396484375,1,1,1
1534599892.310.96875,-0.334228515625,0.056396484375,1,1,1
1534599892.310.965087890625,-0.3359375,0.055908203125,1,1,1
1534599892.320.964111328125,-0.339111328125,0.0517578125,1,1,1
1534599892.320.964111328125,-0.339111328125,0.0517578125,1,1,1
1534599892.320.964599609375,-0.3408203125,0.047119140625,1,1,1
1534599892.320.96484375,-0.341064453125,0.0478515625,1,1,1
1534599892.320.96484375,-0.341064453125,0.0478515625,1,1,1
1534599892.320.968017578125,-0.339111328125,0.049072265625,1,1,1
1534599892.320.9677734375,-0.3388671875,0.0478515625,1,1,1
1534599892.320.9677734375,-0.3388671875,0.0478515625,1,1,1
1534599892.320.968994140625,-0.337158203125,0.046630859375,1,1,1
1534599892.320.968994140625,-0.337158203125,0.046630859375,1,1,1
1534599892.320.967041015625,-0.333984375,0.050048828125,1,1,1
1534599892.320.965087890625,-0.3359375,0.04931640625,1,1,1
1534599892.330.96826171875,-0.33544921875,0.046630859375,1,1,1
1534599892.330.965087890625,-0.339111328125,0.052978515625,1,1,1
1534599892.330.9677734375,-0.33642578125,0.052734375,1,1,1
1534599892.330.9677734375,-0.33642578125,0.052734375,1,1,1
1534599892.330.965576171875,-0.3369140625,0.05322265625,1,1,1
1534599892.330.965576171875,-0.3369140625,0.05322265625,1,1,1
1534599892.330.96337890625,-0.3369140625,0.050048828125,1,1,1
1534599892.330.963134765625,-0.333740234375,0.047607421875,1,1,1
1534599892.330.963134765625,-0.333740234375,0.047607421875,1,1,1
1534599892.330.96240234375,-0.337158203125,0.051513671875,1,1,1
1534599892.330.9619140625,-0.3388671875,0.052001953125,1,1,1
1534599892.330.9619140625,-0.3388671875,0.052001953125,1,1,1
1534599892.330.960693359375,-0.3349609375,0.05126953125,1,1,1
1534599892.340.961669921875,-0.3349609375,0.052490234375,1,1,1
1534599892.340.96435546875,-0.337158203125,0.052734375,1,1,1
1534599892.340.9638671875,-0.337158203125,0.051513671875,1,1,1
1534599892.340.967041015625,-0.337646484375,0.048583984375,1,1,1
1534599892.340.967041015625,-0.337646484375,0.048583984375,1,1,1
1534599892.340.966796875,-0.3369140625,0.04833984375,1,1,1
1534599892.340.96337890625,-0.336181640625,0.05322265625,1,1,1
