CSV format: Accelerometer x value, acclerometer y value, accelerometer z value, gyroscope x value, gyroscope y value, gyroscope z value
Sample frequency: 100Hz
1534599388.311.67846679688,1.24359130859,-0.961303710938
1534599388.311.38854980469,1.23596191406,-0.91552734375
1534599388.311.54113769531,1.12152099609,-0.846862792969
1534599388.321.54113769531,0.747680664062,-0.816345214844
1534599388.321.80053710938,0.343322753906,-0.877380371094
1534599388.321.72424316406,0.167846679688,-0.953674316406
1534599388.321.60217285156,0.221252441406,-0.984191894531
1534599388.321.44195556641,0.518798828125,-0.91552734375
1534599388.321.31988525391,0.54931640625,-0.961303710938
1534599388.321.51062011719,0.892639160156,-0.8544921875
1534599388.321.68609619141,0.778198242188,-0.663757324219
1534599388.321.67846679688,0.747680664062,-0.42724609375
1534599388.321.63269042969,0.831604003906,-0.511169433594
1534599388.321.57928466797,0.656127929688,-0.740051269531
1534599388.331.54876708984,0.572204589844,-0.801086425781
1534599388.331.51062011719,0.595092773438,-0.701904296875
1534599388.331.41906738281,0.6103515625,-0.503540039062
1534599388.331.46484375,0.663757324219,-0.54931640625
1534599388.331.64031982422,0.617980957031,-0.526428222656
1534599388.331.75476074219,0.564575195312,-0.297546386719
1534599388.331.52587890625,0.373840332031,0.0839233398438
1534599388.331.44958496094,0.389099121094,0.198364257812
1534599388.331.51824951172,0.320434570312,0.221252441406
1534599388.331.5869140625,0.267028808594,0.0381469726562
1534599388.331.62506103516,0.373840332031,-0.0457763671875
1534599388.341.61743164062,0.328063964844,-0.0228881835938
1534599388.341.67083740234,0.259399414062,-0.0457763671875
1534599388.341.66320800781,0.251770019531,-0.0762939453125
1534599388.341.60980224609,0.228881835938,-0.0991821289062
1534599388.341.38854980469,0.228881835938,-0.274658203125
1534599388.341.44195556641,0.3662109375,-0.312805175781
1534599388.341.60217285156,0.442504882812,-0.198364257812
1534599388.341.66320800781,0.450134277344,0.00762939453125
1534599388.341.57928466797,0.503540039062,0.251770019531
1534599388.341.45721435547,0.495910644531,0.404357910156
1534599388.341.37329101562,0.42724609375,0.396728515625
1534599388.341.38854980469,0.42724609375,0.06103515625
1534599388.341.35803222656,0.419616699219,-0.0381469726562
1534599388.341.35803222656,0.404357910156,-0.129699707031
1534599388.341.33514404297,0.465393066406,-0.0991821289062
1534599388.341.27410888672,0.526428222656,0.0
1534599388.341.25122070312,0.534057617188,0.0762939453125
1534599388.341.25885009766,0.503540039062,0.205993652344
1534599388.341.3427734375,0.480651855469,0.267028808594
1534599388.341.50299072266,0.411987304688,0.297546386719
1534599388.351.708984375,0.30517578125,0.160217285156
1534599388.351.75476074219,0.282287597656,0.0762939453125
1534599388.351.72424316406,0.282287597656,0.0762939453125
1534599388.351.63269042969,0.267028808594,0.0991821289062
1534599388.351.48773193359,0.251770019531,0.167846679688
1534599388.351.44195556641,0.213623046875,0.190734863281
1534599388.351.49536132812,0.0991821289062,0.198364257812
1534599388.351.55639648438,-0.00762939453125,0.137329101562
1534599388.351.65557861328,-0.0152587890625,0.0762939453125
1534599388.351.74713134766,0.06103515625,0.0381469726562
1534599388.351.74713134766,0.114440917969,-0.091552734375
1534599388.351.72424316406,0.221252441406,-0.251770019531
1534599388.351.79290771484,0.289916992188,-0.328063964844
1534599388.351.74713134766,0.312805175781,-0.289916992188
1534599388.351.61743164062,0.350952148438,-0.205993652344
1534599388.351.48010253906,0.389099121094,-0.091552734375
1534599388.351.35803222656,0.282287597656,-0.0152587890625
1534599388.351.33514404297,0.213623046875,0.030517578125
1534599388.351.44958496094,0.152587890625,0.1220703125
1534599388.351.57165527344,0.160217285156,0.106811523438
1534599388.351.64031982422,0.228881835938,0.06103515625
1534599388.351.55639648438,0.259399414062,-0.0534057617188
1534599388.361.46484375,0.251770019531,-0.091552734375
1534599388.361.38092041016,0.320434570312,-0.129699707031
1534599388.361.22833251953,0.495910644531,-0.205993652344
1534599388.361.19781494141,0.6103515625,-0.221252441406
1534599388.361.38854980469,0.717163085938,-0.312805175781
1534599388.361.53350830078,0.755310058594,-0.373840332031
1534599388.361.66320800781,0.67138671875,-0.389099121094
1534599388.361.68609619141,0.442504882812,-0.465393066406
1534599388.361.64794921875,0.30517578125,-0.48828125
1534599388.361.5869140625,0.18310546875,-0.450134277344
1534599388.361.55639648438,0.18310546875,-0.42724609375
1534599388.361.44195556641,0.404357910156,-0.274658203125
1534599388.361.36566162109,0.625610351562,-0.221252441406
1534599388.361.39617919922,0.648498535156,-0.190734863281
1534599388.361.43432617188,0.587463378906,-0.282287597656
1534599388.361.60217285156,0.579833984375,-0.434875488281
1534599388.361.70135498047,0.6103515625,-0.495910644531
1534599388.361.74713134766,0.694274902344,-0.663757324219
1534599388.361.708984375,0.762939453125,-0.747680664062
1534599388.361.64031982422,0.79345703125,-0.740051269531
1534599388.361.59454345703,0.717163085938,-0.724792480469
1534599388.371.52587890625,0.663757324219,-0.732421875
1534599388.371.54876708984,0.709533691406,-0.625610351562
1534599388.371.56402587891,0.709533691406,-0.556945800781
1534599388.371.56402587891,0.656127929688,-0.503540039062
1534599388.371.59454345703,0.564575195312,-0.450134277344
1534599388.371.65557861328,0.54931640625,-0.442504882812
1534599388.371.63269042969,0.534057617188,-0.48828125
1534599388.371.59454345703,0.6103515625,-0.6103515625
1534599388.371.5869140625,0.617980957031,-0.701904296875
1534599388.371.45721435547,0.740051269531,-0.679016113281
1534599388.371.5869140625,0.785827636719,-0.595092773438
1534599388.371.70135498047,0.770568847656,-0.511169433594
1534599388.371.63269042969,0.732421875,-0.450134277344
1534599388.371.51062011719,0.640869140625,-0.411987304688
1534599388.371.48773193359,0.526428222656,-0.373840332031
1534599388.381.50299072266,0.503540039062,-0.419616699219
1534599388.381.46484375,0.54931640625,-0.534057617188
1534599388.381.48773193359,0.724792480469,-0.511169433594
1534599388.381.43432617188,0.892639160156,-0.564575195312
1534599388.381.41143798828,1.02233886719,-0.679016113281
1534599388.381.44958496094,0.991821289062,-0.747680664062
1534599388.381.48773193359,0.869750976562,-0.740051269531
1534599388.381.51824951172,0.785827636719,-0.755310058594
1534599388.381.5869140625,0.640869140625,-0.808715820312
1534599388.381.5869140625,0.602722167969,-0.762939453125
1534599388.381.48010253906,0.709533691406,-0.518798828125
1534599388.381.43432617188,0.663757324219,-0.465393066406
1534599388.381.49536132812,0.587463378906,-0.595092773438
1534599388.381.54113769531,0.534057617188,-0.587463378906
1534599388.381.59454345703,0.465393066406,-0.564575195312
1534599388.381.76239013672,0.518798828125,-0.656127929688
1534599388.381.76239013672,0.579833984375,-0.656127929688
1534599388.391.62506103516,0.701904296875,-0.556945800781
1534599388.391.47247314453,0.91552734375,-0.411987304688
1534599388.391.44958496094,0.91552734375,-0.404357910156
1534599388.391.45721435547,0.8544921875,-0.480651855469
1534599388.391.3427734375,0.709533691406,-0.404357910156
1534599388.391.30462646484,0.625610351562,-0.328063964844
1534599388.391.31988525391,0.633239746094,-0.198364257812
1534599388.391.44958496094,0.625610351562,-0.144958496094
1534599388.391.60217285156,0.526428222656,-0.152587890625
1534599388.391.71661376953,0.54931640625,-0.0762939453125
1534599388.391.57928466797,0.640869140625,-0.06103515625
1534599388.391.47247314453,0.67138671875,-0.205993652344
1534599388.391.55639648438,0.526428222656,-0.312805175781
1534599388.391.57165527344,0.373840332031,-0.267028808594
1534599388.391.49536132812,0.389099121094,-0.267028808594
1534599388.391.38854980469,0.419616699219,-0.274658203125
1534599388.41.36566162109,0.419616699219,-0.18310546875
1534599388.41.45721435547,0.350952148438,-0.0534057617188
1534599388.41.55639648438,0.434875488281,0.0839233398438
1534599388.41.50299072266,0.625610351562,0.167846679688
1534599388.41.48773193359,0.823974609375,0.114440917969
1534599388.41.56402587891,0.724792480469,0.030517578125
1534599388.41.77764892578,0.640869140625,0.0762939453125
1534599388.41.83868408203,0.503540039062,-0.0381469726562
1534599388.41.60980224609,0.30517578125,-0.129699707031
1534599388.41.39617919922,0.358581542969,-0.18310546875
1534599388.41.28936767578,0.419616699219,-0.190734863281
1534599388.411.37329101562,0.48828125,-0.137329101562
1534599388.411.67083740234,0.740051269531,-0.495910644531
1534599388.411.46484375,0.762939453125,-0.709533691406
1534599388.411.81579589844,0.885009765625,-0.67138671875
1534599388.421.71661376953,0.801086425781,-0.495910644531
1534599388.421.62506103516,0.839233398438,-0.541687011719
1534599388.421.59454345703,0.862121582031,-0.79345703125
1534599388.421.65557861328,0.839233398438,-1.03759765625
1534599388.421.56402587891,0.79345703125,-0.892639160156
1534599388.421.60980224609,0.778198242188,-0.778198242188
1534599388.421.68609619141,0.831604003906,-1.02233886719
1534599388.421.67083740234,0.900268554688,-1.0986328125
1534599388.421.66320800781,0.953674316406,-0.961303710938
1534599388.421.64794921875,1.08337402344,-0.869750976562
1534599388.431.61743164062,1.13677978516,-0.8544921875
1534599388.431.55639648438,1.08337402344,-0.984191894531
1534599388.431.60980224609,0.907897949219,-0.892639160156
1534599388.431.37329101562,0.877380371094,-0.846862792969
1534599388.431.25885009766,0.91552734375,-0.724792480469
1534599388.431.40380859375,0.839233398438,-0.663757324219
1534599388.431.60980224609,0.770568847656,-0.709533691406
1534599388.431.78527832031,0.79345703125,-0.785827636719
1534599388.431.76239013672,0.79345703125,-0.648498535156
1534599388.441.71661376953,0.770568847656,-0.534057617188
1534599388.441.54876708984,0.79345703125,-0.595092773438
1534599388.441.55639648438,0.709533691406,-0.694274902344
1534599388.441.38092041016,0.534057617188,-0.190734863281
1534599388.441.33514404297,0.419616699219,-0.114440917969
1534599388.441.48010253906,0.3662109375,-0.274658203125
1534599388.441.53350830078,0.42724609375,-0.450134277344
1534599388.441.54113769531,0.495910644531,-0.42724609375
1534599388.451.59454345703,0.640869140625,-0.221252441406
1534599388.451.43432617188,0.633239746094,-0.00762939453125
1534599388.451.32751464844,0.595092773438,0.114440917969
1534599388.451.22833251953,0.518798828125,0.0991821289062
1534599388.451.23596191406,0.328063964844,-0.0762939453125
1534599388.451.41906738281,0.137329101562,-0.0991821289062
1534599388.451.53350830078,0.297546386719,-0.00762939453125
1534599388.461.5869140625,0.267028808594,0.228881835938
1534599388.461.63269042969,0.343322753906,0.236511230469
1534599388.461.67846679688,0.411987304688,0.0381469726562
1534599388.461.69372558594,0.511169433594,-0.160217285156
1534599388.461.71661376953,0.54931640625,-0.0991821289062
1534599388.461.80816650391,0.42724609375,-0.137329101562
1534599388.461.62506103516,0.373840332031,-0.152587890625
1534599388.461.42669677734,0.328063964844,-0.00762939453125
1534599388.461.48010253906,0.320434570312,-0.0991821289062
1534599388.471.49536132812,0.328063964844,-0.129699707031
1534599388.471.48010253906,0.419616699219,-0.205993652344
1534599388.471.48010253906,0.450134277344,-0.221252441406
1534599388.471.48773193359,0.526428222656,-0.244140625
1534599388.471.45721435547,0.526428222656,-0.289916992188
1534599388.471.40380859375,0.480651855469,-0.297546386719
1534599388.471.26647949219,0.42724609375,-0.442504882812
1534599388.471.3427734375,0.42724609375,-0.48828125
1534599388.471.54113769531,0.457763671875,-0.465393066406
1534599388.471.73187255859,0.48828125,-0.42724609375
1534599388.471.91497802734,0.534057617188,-0.602722167969
1534599388.471.83868408203,0.633239746094,-0.640869140625
1534599388.481.53350830078,0.625610351562,-0.518798828125
1534599388.481.59454345703,0.67138671875,-0.656127929688
1534599388.481.68609619141,0.640869140625,-0.801086425781
1534599388.481.84631347656,0.572204589844,-0.778198242188
1534599388.481.83868408203,0.572204589844,-0.648498535156
1534599388.481.78527832031,0.6103515625,-0.42724609375
1534599388.481.61743164062,0.389099121094,-0.373840332031
1534599388.481.54876708984,0.419616699219,-0.450134277344
1534599388.481.63269042969,0.48828125,-0.572204589844
1534599388.481.72424316406,0.54931640625,-0.633239746094
1534599388.481.72424316406,0.686645507812,-0.709533691406
1534599388.481.60217285156,0.732421875,-0.770568847656
1534599388.481.53350830078,0.808715820312,-0.770568847656
1534599388.481.56402587891,0.984191894531,-0.724792480469
1534599388.481.55639648438,0.999450683594,-0.595092773438
1534599388.491.60217285156,0.892639160156,-0.411987304688
1534599388.491.57928466797,0.625610351562,-0.389099121094
1534599388.491.56402587891,0.503540039062,-0.396728515625
1534599388.491.57928466797,0.434875488281,-0.434875488281
1534599388.491.66320800781,0.48828125,-0.511169433594
1534599388.491.64031982422,0.442504882812,-0.465393066406
1534599388.491.48773193359,0.526428222656,-0.404357910156
1534599388.491.26647949219,0.740051269531,-0.457763671875
1534599388.491.28173828125,0.442504882812,-0.381469726562
1534599388.491.35040283203,0.297546386719,-0.381469726562
1534599388.491.48773193359,0.221252441406,-0.457763671875
1534599388.491.64031982422,0.3662109375,-0.465393066406
1534599388.491.66320800781,0.465393066406,-0.404357910156
1534599388.491.57165527344,0.595092773438,-0.190734863281
1534599388.491.48773193359,0.572204589844,-0.0762939453125
1534599388.491.47247314453,0.54931640625,-0.0534057617188
1534599388.51.54113769531,0.465393066406,-0.0534057617188
1534599388.51.50299072266,0.518798828125,-0.1220703125
1534599388.51.54113769531,0.67138671875,-0.213623046875
1534599388.51.68609619141,0.740051269531,-0.30517578125
1534599388.51.68609619141,0.625610351562,-0.244140625
1534599388.51.55639648438,0.518798828125,-0.129699707031
1534599388.51.44958496094,0.473022460938,-0.1220703125
1534599388.51.44195556641,0.282287597656,-0.198364257812
1534599388.51.47247314453,0.213623046875,-0.205993652344
1534599388.51.46484375,0.282287597656,-0.274658203125
1534599388.51.44958496094,0.190734863281,-0.236511230469
1534599388.51.46484375,0.244140625,-0.091552734375
1534599388.51.47247314453,0.335693359375,-0.0762939453125
1534599388.51.57928466797,0.320434570312,-0.129699707031
1534599388.51.54113769531,0.335693359375,-0.0839233398438
1534599388.511.44958496094,0.396728515625,-0.160217285156
1534599388.511.43432617188,0.473022460938,-0.274658203125
1534599388.511.42669677734,0.640869140625,-0.274658203125
1534599388.511.40380859375,0.686645507812,-0.213623046875
1534599388.511.40380859375,0.617980957031,-0.18310546875
1534599388.511.43432617188,0.709533691406,-0.190734863281
1534599388.511.46484375,0.648498535156,-0.190734863281
1534599388.511.51062011719,0.480651855469,-0.205993652344
1534599388.511.60980224609,0.373840332031,-0.167846679688
1534599388.511.59454345703,0.160217285156,-0.144958496094
1534599388.511.57928466797,0.0991821289062,-0.221252441406
1534599388.511.62506103516,0.358581542969,-0.244140625
1534599388.511.70135498047,0.709533691406,-0.312805175781
1534599388.511.50299072266,0.923156738281,-0.411987304688
1534599388.511.28936767578,0.808715820312,-0.48828125
1534599388.521.19781494141,0.770568847656,-0.396728515625
1534599388.521.28173828125,0.663757324219,-0.373840332031
1534599388.521.44958496094,0.633239746094,-0.389099121094
1534599388.521.64031982422,0.602722167969,-0.450134277344
1534599388.521.8310546875,0.595092773438,-0.457763671875
1534599388.521.80053710938,0.656127929688,-0.419616699219
1534599388.521.74713134766,0.831604003906,-0.42724609375
1534599388.521.70135498047,0.885009765625,-0.534057617188
1534599388.521.60980224609,0.938415527344,-0.617980957031
1534599388.521.51824951172,0.968933105469,-0.633239746094
1534599388.521.46484375,0.717163085938,-0.617980957031
1534599388.521.53350830078,0.54931640625,-0.595092773438
1534599388.521.61743164062,0.465393066406,-0.579833984375
1534599388.521.54876708984,0.3662109375,-0.602722167969
1534599388.521.55639648438,0.465393066406,-0.701904296875
1534599388.521.64031982422,0.648498535156,-0.801086425781
1534599388.531.63269042969,0.701904296875,-0.900268554688
1534599388.531.67083740234,0.648498535156,-0.816345214844
1534599388.531.72424316406,0.526428222656,-0.801086425781
1534599388.531.80053710938,0.6103515625,-0.762939453125
1534599388.531.72424316406,0.747680664062,-0.762939453125
1534599388.531.59454345703,0.831604003906,-0.778198242188
1534599388.531.61743164062,0.823974609375,-0.8544921875
1534599388.531.49536132812,0.869750976562,-0.923156738281
1534599388.531.50299072266,0.846862792969,-0.823974609375
1534599388.531.56402587891,0.900268554688,-0.892639160156
1534599388.531.64031982422,0.892639160156,-0.961303710938
1534599388.531.68609619141,0.892639160156,-0.877380371094
1534599388.531.74713134766,0.770568847656,-0.846862792969
1534599388.531.67083740234,0.724792480469,-0.79345703125
1534599388.531.54876708984,0.679016113281,-0.732421875
1534599388.531.54113769531,0.648498535156,-0.701904296875
1534599388.541.68609619141,0.686645507812,-0.694274902344
1534599388.541.68609619141,0.770568847656,-0.801086425781
1534599388.541.63269042969,0.900268554688,-0.900268554688
1534599388.541.51824951172,0.946044921875,-0.877380371094
1534599388.541.44958496094,0.808715820312,-0.9765625
1534599388.541.48773193359,0.67138671875,-1.10626220703
1534599388.541.53350830078,0.617980957031,-1.15203857422
1534599388.541.62506103516,0.595092773438,-1.08337402344
1534599388.541.65557861328,0.625610351562,-0.984191894531
1534599388.541.71661376953,0.67138671875,-0.831604003906
1534599388.541.61743164062,0.633239746094,-0.709533691406
1534599388.541.45721435547,0.6103515625,-0.648498535156
1534599388.541.47247314453,0.67138671875,-0.679016113281
1534599388.541.52587890625,0.625610351562,-0.717163085938
1534599388.541.41906738281,0.556945800781,-0.602722167969
1534599388.541.45721435547,0.54931640625,-0.564575195312
1534599388.541.50299072266,0.602722167969,-0.640869140625
1534599388.551.47247314453,0.640869140625,-0.648498535156
1534599388.551.5869140625,0.602722167969,-0.633239746094
1534599388.551.70135498047,0.617980957031,-0.54931640625
1534599388.551.81579589844,0.656127929688,-0.328063964844
1534599388.551.76239013672,0.755310058594,-0.312805175781
1534599388.551.59454345703,0.709533691406,-0.473022460938
1534599388.551.57165527344,0.595092773438,-0.595092773438
1534599388.551.55639648438,0.511169433594,-0.6103515625
1534599388.551.48010253906,0.564575195312,-0.503540039062
1534599388.551.50299072266,0.572204589844,-0.335693359375
1534599388.551.54876708984,0.495910644531,-0.312805175781
1534599388.551.50299072266,0.411987304688,-0.274658203125
1534599388.551.59454345703,0.312805175781,-0.297546386719
1534599388.551.68609619141,0.274658203125,-0.335693359375
1534599388.551.76239013672,0.236511230469,-0.297546386719
1534599388.551.70135498047,0.381469726562,-0.228881835938
1534599388.561.57165527344,0.602722167969,-0.114440917969
1534599388.561.46484375,0.717163085938,-0.0457763671875
1534599388.561.41906738281,0.686645507812,-0.114440917969
1534599388.561.44195556641,0.587463378906,-0.205993652344
1534599388.561.49536132812,0.442504882812,-0.1220703125
1534599388.561.35803222656,0.450134277344,-0.0381469726562
1534599388.561.39617919922,0.595092773438,-0.0152587890625
1534599388.561.47247314453,0.747680664062,-0.0381469726562
1534599388.561.57165527344,0.709533691406,-0.0534057617188
1534599388.561.70135498047,0.564575195312,-0.0762939453125
1534599388.561.66320800781,0.419616699219,-0.091552734375
1534599388.561.66320800781,0.297546386719,-0.167846679688
1534599388.561.54876708984,0.205993652344,-0.320434570312
1534599388.561.30462646484,0.251770019531,-0.389099121094
1534599388.561.35040283203,0.343322753906,-0.396728515625
1534599388.561.52587890625,0.473022460938,-0.320434570312
1534599388.561.59454345703,0.480651855469,-0.205993652344
1534599388.571.54876708984,0.473022460938,-0.114440917969
1534599388.571.39617919922,0.564575195312,-0.0839233398438
1534599388.571.40380859375,0.526428222656,-0.0839233398438
1534599388.571.37329101562,0.42724609375,-0.091552734375
1534599388.571.40380859375,0.411987304688,-0.091552734375
1534599388.571.46484375,0.373840332031,-0.144958496094
1534599388.571.61743164062,0.411987304688,-0.0534057617188
1534599388.571.74713134766,0.373840332031,0.0
1534599388.571.70135498047,0.480651855469,-0.0686645507812
1534599388.571.71661376953,0.640869140625,-0.106811523438
1534599388.571.72424316406,0.663757324219,-0.0457763671875
1534599388.571.64031982422,0.625610351562,-0.030517578125
1534599388.571.56402587891,0.556945800781,-0.06103515625
1534599388.571.45721435547,0.534057617188,0.030517578125
1534599388.571.44958496094,0.572204589844,-0.0228881835938
1534599388.571.54876708984,0.572204589844,-0.167846679688
1534599388.581.60980224609,0.534057617188,-0.251770019531
1534599388.581.60980224609,0.503540039062,-0.282287597656
1534599388.581.54876708984,0.404357910156,-0.175476074219
1534599388.581.50299072266,0.350952148438,-0.0762939453125
1534599388.581.38092041016,0.358581542969,0.0
1534599388.581.38092041016,0.312805175781,-0.030517578125
1534599388.581.50299072266,0.450134277344,-0.06103515625
1534599388.591.47247314453,0.816345214844,-0.465393066406
1534599388.591.26647949219,0.732421875,-0.411987304688
1534599388.591.64031982422,0.389099121094,-0.572204589844
1534599388.591.67083740234,0.350952148438,-0.762939453125
1534599388.591.69372558594,0.419616699219,-0.656127929688
1534599388.591.37329101562,0.495910644531,-0.564575195312
1534599388.61.48773193359,0.434875488281,-0.602722167969
1534599388.61.65557861328,0.373840332031,-0.755310058594
1534599388.61.68609619141,0.534057617188,-0.656127929688
1534599388.61.63269042969,0.717163085938,-0.511169433594
1534599388.61.50299072266,0.564575195312,-0.747680664062
1534599388.61.63269042969,0.541687011719,-0.450134277344
1534599388.61.62506103516,0.625610351562,-0.381469726562
1534599388.611.40380859375,0.419616699219,-0.473022460938
1534599388.611.36566162109,0.602722167969,-0.556945800781
1534599388.611.40380859375,0.556945800781,-0.526428222656
1534599388.611.46484375,0.473022460938,-0.656127929688
1534599388.611.73950195312,0.755310058594,-0.404357910156
1534599388.611.78527832031,0.617980957031,-0.404357910156
1534599388.611.5869140625,0.389099121094,-0.350952148438
1534599388.611.56402587891,0.312805175781,-0.473022460938
1534599388.621.55639648438,0.54931640625,-0.404357910156
1534599388.621.53350830078,0.595092773438,-0.320434570312
1534599388.621.59454345703,0.480651855469,-0.297546386719
1534599388.621.66320800781,0.404357910156,-0.274658203125
1534599388.621.65557861328,0.54931640625,-0.282287597656
1534599388.631.62506103516,0.762939453125,-0.274658203125
1534599388.631.41906738281,0.625610351562,-0.0762939453125
1534599388.631.5869140625,0.617980957031,0.091552734375
1534599388.631.67083740234,0.518798828125,-0.0762939453125
1534599388.631.64031982422,0.54931640625,-0.175476074219
1534599388.631.63269042969,0.442504882812,-0.106811523438
1534599388.631.48773193359,0.381469726562,-0.18310546875
1534599388.631.44195556641,0.411987304688,-0.251770019531
1534599388.631.39617919922,0.495910644531,-0.274658203125
1534599388.631.56402587891,0.373840332031,-0.320434570312
1534599388.631.64794921875,0.259399414062,-0.205993652344
1534599388.641.55639648438,0.236511230469,-0.175476074219
1534599388.641.48010253906,0.701904296875,-0.274658203125
1534599388.641.51824951172,0.640869140625,-0.236511230469
1534599388.641.63269042969,0.42724609375,-0.411987304688
1534599388.641.71661376953,0.320434570312,-0.465393066406
1534599388.641.59454345703,0.457763671875,-0.419616699219
1534599388.641.38854980469,0.579833984375,-0.396728515625
1534599388.641.48010253906,0.572204589844,-0.358581542969
1534599388.641.55639648438,0.633239746094,-0.389099121094
1534599388.641.48773193359,0.686645507812,-0.465393066406
1534599388.651.40380859375,0.961303710938,-0.541687011719
1534599388.651.51824951172,0.701904296875,-0.663757324219
1534599388.651.40380859375,0.717163085938,-0.648498535156
1534599388.651.53350830078,0.6103515625,-0.564575195312
1534599388.651.708984375,0.526428222656,-0.640869140625
1534599388.651.73187255859,0.465393066406,-0.640869140625
1534599388.651.70135498047,0.282287597656,-0.778198242188
1534599388.651.55639648438,0.404357910156,-0.91552734375
1534599388.651.40380859375,0.648498535156,-0.740051269531
1534599388.651.60217285156,0.770568847656,-0.648498535156
1534599388.651.65557861328,0.724792480469,-0.701904296875
1534599388.661.55639648438,0.587463378906,-0.823974609375
1534599388.661.54876708984,0.579833984375,-0.900268554688
1534599388.661.60217285156,0.785827636719,-0.801086425781
1534599388.661.55639648438,0.8544921875,-0.762939453125
1534599388.661.57928466797,0.923156738281,-0.686645507812
1534599388.661.55639648438,0.862121582031,-0.518798828125
1534599388.661.54113769531,0.885009765625,-0.442504882812
1534599388.661.52587890625,0.816345214844,-0.54931640625
1534599388.661.46484375,0.79345703125,-0.595092773438
1534599388.661.41906738281,0.778198242188,-0.595092773438
1534599388.661.51062011719,0.79345703125,-0.579833984375
1534599388.661.51062011719,0.762939453125,-0.595092773438
1534599388.661.50299072266,0.648498535156,-0.518798828125
1534599388.661.57165527344,0.495910644531,-0.579833984375
1534599388.661.55639648438,0.396728515625,-0.67138671875
1534599388.661.64031982422,0.541687011719,-0.747680664062
1534599388.671.65557861328,0.701904296875,-0.67138671875
1534599388.671.51062011719,0.892639160156,-0.373840332031
1534599388.671.49536132812,0.961303710938,-0.213623046875
1534599388.671.62506103516,0.8544921875,-0.282287597656
1534599388.671.708984375,0.831604003906,-0.42724609375
1534599388.671.73187255859,0.679016113281,-0.541687011719
1534599388.671.70135498047,0.556945800781,-0.679016113281
1534599388.671.80816650391,0.694274902344,-0.686645507812
1534599388.671.8310546875,0.6103515625,-0.48828125
1534599388.671.75476074219,0.617980957031,-0.373840332031
1534599388.671.64794921875,0.663757324219,-0.282287597656
1534599388.671.63269042969,0.717163085938,-0.198364257812
1534599388.671.5869140625,0.732421875,-0.190734863281
1534599388.671.51824951172,0.79345703125,-0.152587890625
1534599388.671.48010253906,0.877380371094,-0.152587890625
1534599388.671.41906738281,0.892639160156,-0.160217285156
1534599388.681.38854980469,0.740051269531,-0.152587890625
1534599388.681.40380859375,0.625610351562,-0.228881835938
1534599388.681.45721435547,0.526428222656,-0.3662109375
1534599388.681.51824951172,0.381469726562,-0.457763671875
1534599388.681.54113769531,0.297546386719,-0.396728515625
1534599388.681.57165527344,0.343322753906,-0.358581542969
1534599388.681.64031982422,0.42724609375,-0.236511230469
1534599388.681.72424316406,0.511169433594,-0.198364257812
1534599388.681.76239013672,0.526428222656,-0.259399414062
1534599388.681.77764892578,0.480651855469,-0.297546386719
1534599388.681.66320800781,0.534057617188,-0.244140625
1534599388.681.54876708984,0.534057617188,-0.0991821289062
1534599388.681.52587890625,0.480651855469,0.030517578125
1534599388.681.5869140625,0.42724609375,0.144958496094
1534599388.681.60980224609,0.419616699219,0.228881835938
1534599388.681.69372558594,0.411987304688,0.190734863281
1534599388.681.70135498047,0.320434570312,0.167846679688
1534599388.681.62506103516,0.274658203125,0.0991821289062
1534599388.681.51062011719,0.267028808594,0.0152587890625
1534599388.681.47247314453,0.274658203125,-0.0839233398438
1534599388.681.51062011719,0.343322753906,-0.0991821289062
1534599388.681.56402587891,0.411987304688,-0.0839233398438
1534599388.691.57928466797,0.442504882812,0.0152587890625
1534599388.691.5869140625,0.42724609375,0.0839233398438
1534599388.691.64031982422,0.419616699219,0.0762939453125
1534599388.691.63269042969,0.396728515625,0.114440917969
1534599388.691.52587890625,0.312805175781,0.06103515625
1534599388.691.40380859375,0.343322753906,0.0381469726562
1534599388.691.38854980469,0.335693359375,0.0152587890625
1534599388.691.45721435547,0.373840332031,-0.030517578125
1534599388.691.49536132812,0.3662109375,-0.0534057617188
1534599388.691.54876708984,0.381469726562,-0.0457763671875
1534599388.691.63269042969,0.30517578125,0.0228881835938
1534599388.691.67846679688,0.18310546875,-0.030517578125
1534599388.691.68609619141,0.137329101562,-0.0381469726562
1534599388.691.70135498047,0.190734863281,-0.0534057617188
1534599388.691.63269042969,0.358581542969,-0.091552734375
1534599388.691.50299072266,0.30517578125,-0.144958496094
1534599388.691.45721435547,0.289916992188,-0.167846679688
1534599388.691.37329101562,0.282287597656,-0.0991821289062
1534599388.691.31225585938,0.320434570312,-0.106811523438
1534599388.691.27410888672,0.343322753906,-0.190734863281
1534599388.691.39617919922,0.251770019531,-0.221252441406
1534599388.71.54113769531,0.091552734375,-0.297546386719
1534599388.71.57928466797,0.0762939453125,-0.358581542969
1534599388.71.54876708984,0.144958496094,-0.42724609375
1534599388.71.44195556641,0.282287597656,-0.465393066406
1534599388.71.30462646484,0.373840332031,-0.518798828125
1534599388.71.19018554688,0.526428222656,-0.602722167969
1534599388.71.26647949219,0.694274902344,-0.587463378906
1534599388.71.36566162109,0.740051269531,-0.572204589844
1534599388.71.36566162109,0.709533691406,-0.450134277344
1534599388.71.31988525391,0.656127929688,-0.3662109375
1534599388.71.35803222656,0.633239746094,-0.419616699219
1534599388.71.45721435547,0.633239746094,-0.434875488281
1534599388.71.52587890625,0.480651855469,-0.465393066406
1534599388.71.54876708984,0.465393066406,-0.556945800781
1534599388.71.57165527344,0.48828125,-0.633239746094
1534599388.71.60217285156,0.473022460938,-0.679016113281
1534599388.71.59454345703,0.450134277344,-0.633239746094
1534599388.71.57165527344,0.450134277344,-0.602722167969
1534599388.711.57165527344,0.511169433594,-0.625610351562
1534599388.711.57928466797,0.541687011719,-0.717163085938
1534599388.711.5869140625,0.579833984375,-0.762939453125
1534599388.711.56402587891,0.633239746094,-0.808715820312
1534599388.711.47247314453,0.587463378906,-0.694274902344
1534599388.711.37329101562,0.572204589844,-0.595092773438
1534599388.711.35040283203,0.587463378906,-0.541687011719
1534599388.711.32751464844,0.633239746094,-0.587463378906
1534599388.711.31988525391,0.686645507812,-0.717163085938
1534599388.711.39617919922,0.709533691406,-0.785827636719
1534599388.711.44958496094,0.640869140625,-0.778198242188
1534599388.711.51062011719,0.518798828125,-0.747680664062
1534599388.711.5869140625,0.457763671875,-0.694274902344
1534599388.711.60217285156,0.503540039062,-0.663757324219
1534599388.711.55639648438,0.556945800781,-0.625610351562
1534599388.711.51062011719,0.625610351562,-0.640869140625
1534599388.711.44958496094,0.724792480469,-0.686645507812
1534599388.711.28173828125,0.602722167969,-0.892639160156
1534599388.711.25122070312,0.656127929688,-0.869750976562
1534599388.711.27410888672,0.717163085938,-0.8544921875
1534599388.721.41143798828,0.663757324219,-0.801086425781
1534599388.721.64794921875,0.595092773438,-0.640869140625
1534599388.721.60980224609,0.602722167969,-0.709533691406
1534599388.721.55639648438,0.556945800781,-0.572204589844
1534599388.721.57928466797,0.526428222656,-0.434875488281
1534599388.721.54113769531,0.503540039062,-0.473022460938
1534599388.721.5869140625,0.541687011719,-0.54931640625
1534599388.721.5869140625,0.640869140625,-0.656127929688
1534599388.721.60217285156,0.701904296875,-0.747680664062
1534599388.721.62506103516,0.831604003906,-0.869750976562
1534599388.721.60217285156,0.9765625,-0.91552734375
1534599388.721.56402587891,0.999450683594,-0.816345214844
1534599388.721.52587890625,0.816345214844,-0.709533691406
1534599388.721.51824951172,0.686645507812,-0.67138671875
1534599388.721.43432617188,0.556945800781,-0.732421875
1534599388.721.38854980469,0.495910644531,-0.724792480469
1534599388.721.38092041016,0.419616699219,-0.6103515625
1534599388.721.36566162109,0.404357910156,-0.564575195312
1534599388.721.43432617188,0.373840332031,-0.511169433594
1534599388.731.51062011719,0.358581542969,-0.511169433594
1534599388.731.51824951172,0.381469726562,-0.511169433594
1534599388.731.41143798828,0.495910644531,-0.534057617188
1534599388.731.37329101562,0.595092773438,-0.473022460938
1534599388.731.31988525391,0.679016113281,-0.465393066406
1534599388.731.30462646484,0.709533691406,-0.419616699219
1534599388.731.31225585938,0.6103515625,-0.373840332031
1534599388.731.30462646484,0.602722167969,-0.518798828125
1534599388.731.35803222656,0.701904296875,-0.54931640625
1534599388.731.45721435547,0.747680664062,-0.556945800781
1534599388.731.51824951172,0.747680664062,-0.534057617188
1534599388.731.48010253906,0.572204589844,-0.411987304688
1534599388.731.35040283203,0.442504882812,-0.244140625
1534599388.731.33514404297,0.3662109375,-0.091552734375
1534599388.731.35040283203,0.358581542969,-0.0534057617188
1534599388.731.43432617188,0.434875488281,-0.0457763671875
1534599388.731.50299072266,0.473022460938,-0.0534057617188
1534599388.731.62506103516,0.511169433594,-0.091552734375
1534599388.731.64794921875,0.534057617188,-0.205993652344
1534599388.731.68609619141,0.511169433594,-0.289916992188
1534599388.731.73950195312,0.541687011719,-0.289916992188
1534599388.741.77001953125,0.640869140625,-0.221252441406
1534599388.741.70135498047,0.656127929688,-0.0991821289062
1534599388.741.63269042969,0.6103515625,-0.0686645507812
1534599388.741.61743164062,0.595092773438,0.0228881835938
1534599388.741.60217285156,0.572204589844,0.0991821289062
1534599388.741.5869140625,0.457763671875,0.137329101562
1534599388.741.56402587891,0.404357910156,0.129699707031
1534599388.741.54876708984,0.381469726562,-0.00762939453125
1534599388.741.60217285156,0.297546386719,-0.0686645507812
1534599388.741.55639648438,0.30517578125,-0.0152587890625
1534599388.741.51824951172,0.350952148438,0.030517578125
1534599388.741.45721435547,0.419616699219,0.0228881835938
1534599388.741.40380859375,0.503540039062,-0.0381469726562
1534599388.741.44195556641,0.450134277344,-0.0381469726562
1534599388.741.47247314453,0.434875488281,-0.030517578125
1534599388.741.51062011719,0.419616699219,-0.0152587890625
1534599388.741.57928466797,0.495910644531,-0.030517578125
1534599388.741.59454345703,0.534057617188,-0.00762939453125
1534599388.741.60217285156,0.511169433594,0.0381469726562
1534599388.741.57165527344,0.473022460938,-0.0228881835938
1534599388.741.48010253906,0.442504882812,-0.1220703125
1534599388.741.39617919922,0.411987304688,-0.160217285156
1534599388.751.40380859375,0.30517578125,-0.106811523438
1534599388.751.43432617188,0.259399414062,-0.06103515625
1534599388.751.50299072266,0.30517578125,-0.00762939453125
1534599388.751.60217285156,0.282287597656,-0.091552734375
1534599388.751.70135498047,0.350952148438,-0.190734863281
1534599388.751.68609619141,0.442504882812,-0.267028808594
1534599388.751.57928466797,0.534057617188,-0.30517578125
1534599388.751.48773193359,0.640869140625,-0.350952148438
1534599388.751.41906738281,0.67138671875,-0.328063964844
1534599388.751.37329101562,0.686645507812,-0.267028808594
1534599388.751.3427734375,0.617980957031,-0.267028808594
1534599388.751.35803222656,0.564575195312,-0.228881835938
1534599388.751.44958496094,0.381469726562,-0.267028808594
1534599388.751.60217285156,0.335693359375,-0.274658203125
1534599388.751.708984375,0.404357910156,-0.297546386719
1534599388.761.81579589844,0.503540039062,-0.343322753906
1534599388.761.46484375,0.3662109375,-0.404357910156
1534599388.761.48773193359,0.686645507812,-0.801086425781
1534599388.761.41906738281,0.617980957031,-0.648498535156
1534599388.761.36566162109,0.694274902344,-0.595092773438
1534599388.761.39617919922,0.900268554688,-0.564575195312
1534599388.761.44195556641,0.877380371094,-0.534057617188
1534599388.771.45721435547,0.808715820312,-0.6103515625
1534599388.771.48773193359,0.770568847656,-0.755310058594
1534599388.771.59454345703,0.701904296875,-0.869750976562
1534599388.771.54876708984,0.6103515625,-0.801086425781
1534599388.771.43432617188,0.595092773438,-0.686645507812
1534599388.771.42669677734,0.724792480469,-0.6103515625
1534599388.771.49536132812,0.885009765625,-0.602722167969
1534599388.771.44958496094,0.869750976562,-0.679016113281
1534599388.771.45721435547,0.831604003906,-0.801086425781
1534599388.771.37329101562,0.717163085938,-0.877380371094
1534599388.771.30462646484,0.617980957031,-0.900268554688
1534599388.771.41143798828,0.602722167969,-0.9765625
1534599388.771.50299072266,0.663757324219,-1.05285644531
1534599388.781.45721435547,0.778198242188,-0.923156738281
1534599388.781.51062011719,0.526428222656,-0.846862792969
1534599388.781.57165527344,0.465393066406,-0.785827636719
1534599388.781.61743164062,0.396728515625,-0.762939453125
1534599388.781.56402587891,0.457763671875,-0.663757324219
1534599388.781.55639648438,0.595092773438,-0.595092773438
1534599388.781.48010253906,0.701904296875,-0.511169433594
1534599388.781.54876708984,0.640869140625,-0.350952148438
1534599388.781.46484375,0.503540039062,-0.343322753906
1534599388.781.46484375,0.534057617188,-0.3662109375
1534599388.781.39617919922,0.663757324219,-0.511169433594
1534599388.781.32751464844,0.762939453125,-0.625610351562
1534599388.781.36566162109,0.823974609375,-0.556945800781
1534599388.791.44958496094,0.900268554688,-0.267028808594
1534599388.791.51824951172,0.846862792969,-0.205993652344
1534599388.791.69372558594,0.587463378906,-0.328063964844
1534599388.791.66320800781,0.511169433594,-0.450134277344
1534599388.791.64794921875,0.480651855469,-0.48828125
1534599388.791.60217285156,0.457763671875,-0.450134277344
1534599388.791.48773193359,0.411987304688,-0.450134277344
1534599388.791.41906738281,0.244140625,-0.518798828125
1534599388.791.36566162109,0.267028808594,-0.534057617188
1534599388.791.61743164062,0.679016113281,-0.282287597656
1534599388.791.60217285156,0.640869140625,-0.289916992188
1534599388.81.55639648438,0.633239746094,-0.312805175781
1534599388.81.53350830078,0.480651855469,-0.373840332031
1534599388.81.47247314453,0.343322753906,-0.335693359375
1534599388.81.50299072266,0.244140625,-0.221252441406
1534599388.81.46484375,0.259399414062,-0.1220703125
1534599388.81.54113769531,0.328063964844,-0.244140625
1534599388.81.64794921875,0.3662109375,-0.289916992188
1534599388.81.60980224609,0.3662109375,-0.30517578125
1534599388.81.57165527344,0.3662109375,-0.259399414062
1534599388.81.56402587891,0.335693359375,-0.205993652344
1534599388.81.57165527344,0.3662109375,-0.18310546875
1534599388.81.51062011719,0.419616699219,-0.137329101562
1534599388.81.44958496094,0.511169433594,-0.152587890625
1534599388.81.45721435547,0.579833984375,-0.144958496094
1534599388.81.46484375,0.587463378906,-0.114440917969
1534599388.81.47247314453,0.526428222656,-0.152587890625
1534599388.81.44958496094,0.511169433594,-0.167846679688
1534599388.81.48773193359,0.518798828125,-0.244140625
1534599388.81.47247314453,0.518798828125,-0.312805175781
1534599388.81.44195556641,0.465393066406,-0.335693359375
1534599388.811.46484375,0.518798828125,-0.396728515625
1534599388.811.44195556641,0.602722167969,-0.450134277344
1534599388.811.50299072266,0.656127929688,-0.457763671875
1534599388.811.54876708984,0.679016113281,-0.442504882812
1534599388.811.61743164062,0.648498535156,-0.274658203125
1534599388.811.67846679688,0.564575195312,-0.0686645507812
1534599388.811.67083740234,0.503540039062,0.00762939453125
1534599388.811.71661376953,0.495910644531,-0.0839233398438
1534599388.811.708984375,0.518798828125,-0.160217285156
1534599388.811.63269042969,0.457763671875,-0.175476074219
1534599388.811.56402587891,0.503540039062,-0.228881835938
1534599388.811.55639648438,0.541687011719,-0.343322753906
1534599388.811.53350830078,0.656127929688,-0.434875488281
1534599388.811.52587890625,0.679016113281,-0.526428222656
1534599388.811.57928466797,0.686645507812,-0.503540039062
1534599388.811.63269042969,0.709533691406,-0.480651855469
1534599388.811.69372558594,0.648498535156,-0.48828125
1534599388.811.64794921875,0.564575195312,-0.503540039062
1534599388.811.57165527344,0.526428222656,-0.42724609375
1534599388.811.46484375,0.442504882812,-0.442504882812
1534599388.821.29699707031,0.465393066406,-0.556945800781
1534599388.821.49536132812,0.450134277344,-0.595092773438
1534599388.821.68609619141,0.686645507812,-0.534057617188
1534599388.821.68609619141,0.595092773438,-0.404357910156
1534599388.821.61743164062,0.411987304688,-0.42724609375
1534599388.821.54113769531,0.480651855469,-0.602722167969
1534599388.821.5869140625,0.633239746094,-0.755310058594
1534599388.821.45721435547,0.640869140625,-0.617980957031
1534599388.821.28936767578,0.633239746094,-0.457763671875
1534599388.821.21307373047,0.602722167969,-0.373840332031
1534599388.821.28936767578,0.595092773438,-0.343322753906
1534599388.821.38854980469,0.473022460938,-0.343322753906
1534599388.821.47247314453,0.434875488281,-0.404357910156
1534599388.831.55639648438,0.473022460938,-0.503540039062
1534599388.831.52587890625,0.465393066406,-0.602722167969
1534599388.831.48010253906,0.404357910156,-0.633239746094
1534599388.831.44958496094,0.396728515625,-0.541687011719
1534599388.831.46484375,0.450134277344,-0.419616699219
1534599388.831.44958496094,0.511169433594,-0.3662109375
1534599388.831.50299072266,0.556945800781,-0.335693359375
1534599388.831.44195556641,0.617980957031,-0.3662109375
1534599388.831.44195556641,0.717163085938,-0.42724609375
1534599388.831.53350830078,0.79345703125,-0.495910644531
1534599388.831.67083740234,0.846862792969,-0.534057617188
1534599388.831.70135498047,0.823974609375,-0.518798828125
1534599388.831.65557861328,0.701904296875,-0.534057617188
1534599388.831.55639648438,0.602722167969,-0.48828125
1534599388.831.38854980469,0.495910644531,-0.503540039062
1534599388.831.41906738281,0.42724609375,-0.495910644531
1534599388.831.48010253906,0.404357910156,-0.457763671875
1534599388.831.54113769531,0.442504882812,-0.450134277344
1534599388.831.55639648438,0.579833984375,-0.434875488281
1534599388.831.54113769531,0.747680664062,-0.48828125
1534599388.831.53350830078,0.740051269531,-0.480651855469
1534599388.831.43432617188,0.640869140625,-0.457763671875
1534599388.841.35803222656,0.503540039062,-0.48828125
1534599388.841.48773193359,0.389099121094,-0.579833984375
1534599388.841.64794921875,0.274658203125,-0.679016113281
1534599388.841.71661376953,0.259399414062,-0.724792480469
1534599388.841.708984375,0.267028808594,-0.747680664062
1534599388.841.60980224609,0.42724609375,-0.694274902344
1534599388.841.51062011719,0.579833984375,-0.67138671875
1534599388.841.38854980469,0.67138671875,-0.663757324219
1534599388.841.3427734375,0.640869140625,-0.564575195312
1534599388.841.3427734375,0.6103515625,-0.465393066406
1534599388.841.39617919922,0.579833984375,-0.373840332031
1534599388.841.51062011719,0.595092773438,-0.267028808594
1534599388.841.54876708984,0.656127929688,-0.160217285156
1534599388.841.56402587891,0.617980957031,-0.152587890625
1534599388.841.61743164062,0.541687011719,-0.175476074219
1534599388.841.65557861328,0.389099121094,-0.190734863281
1534599388.841.64794921875,0.350952148438,-0.267028808594
1534599388.841.62506103516,0.373840332031,-0.289916992188
1534599388.841.54113769531,0.495910644531,-0.282287597656
1534599388.841.51824951172,0.6103515625,-0.244140625
1534599388.841.56402587891,0.625610351562,-0.213623046875
1534599388.841.62506103516,0.595092773438,-0.221252441406
1534599388.851.64794921875,0.602722167969,-0.213623046875
1534599388.851.59454345703,0.648498535156,-0.221252441406
1534599388.851.54113769531,0.633239746094,-0.282287597656
1534599388.851.49536132812,0.617980957031,-0.282287597656
1534599388.851.47247314453,0.617980957031,-0.244140625
1534599388.851.45721435547,0.587463378906,-0.244140625
1534599388.851.38092041016,0.442504882812,-0.274658203125
1534599388.851.3427734375,0.312805175781,-0.236511230469
1534599388.851.47247314453,0.228881835938,-0.274658203125
1534599388.851.60217285156,0.259399414062,-0.282287597656
1534599388.851.61743164062,0.289916992188,-0.274658203125
1534599388.851.62506103516,0.320434570312,-0.328063964844
1534599388.851.67083740234,0.411987304688,-0.320434570312
1534599388.851.61743164062,0.404357910156,-0.358581542969
1534599388.851.52587890625,0.328063964844,-0.473022460938
1534599388.851.51062011719,0.236511230469,-0.48828125
1534599388.851.55639648438,0.175476074219,-0.411987304688
1534599388.851.60980224609,0.190734863281,-0.343322753906
1534599388.851.60217285156,0.30517578125,-0.396728515625
1534599388.851.60980224609,0.358581542969,-0.442504882812
1534599388.851.57165527344,0.434875488281,-0.419616699219
1534599388.851.64794921875,0.480651855469,-0.343322753906
1534599388.861.80816650391,0.556945800781,-0.320434570312
1534599388.861.80053710938,0.556945800781,-0.259399414062
1534599388.861.72424316406,0.595092773438,-0.205993652344
1534599388.861.74713134766,0.617980957031,-0.251770019531
1534599388.861.83868408203,0.564575195312,-0.244140625
1534599388.861.73950195312,0.572204589844,-0.312805175781
1534599388.861.62506103516,0.648498535156,-0.30517578125
1534599388.861.43432617188,0.778198242188,-0.30517578125
1534599388.861.40380859375,0.785827636719,-0.3662109375
1534599388.861.45721435547,0.732421875,-0.358581542969
1534599388.861.55639648438,0.656127929688,-0.343322753906
1534599388.861.59454345703,0.6103515625,-0.274658203125
1534599388.861.59454345703,0.602722167969,-0.251770019531
1534599388.861.60217285156,0.556945800781,-0.198364257812
1534599388.861.60217285156,0.541687011719,-0.205993652344
1534599388.861.54113769531,0.67138671875,-0.213623046875
1534599388.861.51824951172,0.808715820312,-0.167846679688
1534599388.861.48773193359,0.907897949219,-0.129699707031
1534599388.861.48773193359,0.923156738281,-0.198364257812
1534599388.861.53350830078,0.8544921875,-0.282287597656
1534599388.861.50299072266,0.724792480469,-0.3662109375
1534599388.861.44958496094,0.617980957031,-0.457763671875
1534599388.871.3427734375,0.442504882812,-0.465393066406
1534599388.871.3427734375,0.30517578125,-0.404357910156
1534599388.871.37329101562,0.350952148438,-0.457763671875
1534599388.871.46484375,0.442504882812,-0.480651855469
1534599388.871.52587890625,0.495910644531,-0.564575195312
1534599388.871.52587890625,0.556945800781,-0.602722167969
1534599388.871.5869140625,0.6103515625,-0.625610351562
1534599388.871.68609619141,0.717163085938,-0.617980957031
1534599388.871.75476074219,0.709533691406,-0.587463378906
1534599388.871.70135498047,0.640869140625,-0.42724609375
1534599388.871.62506103516,0.564575195312,-0.358581542969
1534599388.871.42669677734,0.564575195312,-0.373840332031
1534599388.871.31988525391,0.572204589844,-0.358581542969
1534599388.871.28936767578,0.617980957031,-0.328063964844
1534599388.871.30462646484,0.602722167969,-0.297546386719
1534599388.871.3427734375,0.564575195312,-0.350952148438
1534599388.871.41906738281,0.541687011719,-0.389099121094
1534599388.871.45721435547,0.587463378906,-0.480651855469
1534599388.871.51824951172,0.617980957031,-0.48828125
1534599388.871.59454345703,0.572204589844,-0.541687011719
1534599388.871.62506103516,0.556945800781,-0.587463378906
1534599388.871.65557861328,0.48828125,-0.556945800781
1534599388.881.64031982422,0.404357910156,-0.526428222656
1534599388.881.65557861328,0.373840332031,-0.518798828125
1534599388.881.64794921875,0.350952148438,-0.518798828125
1534599388.881.60980224609,0.373840332031,-0.526428222656
1534599388.881.53350830078,0.473022460938,-0.572204589844
1534599388.881.43432617188,0.541687011719,-0.587463378906
1534599388.881.40380859375,0.602722167969,-0.534057617188
1534599388.881.41906738281,0.663757324219,-0.42724609375
1534599388.881.47247314453,0.602722167969,-0.396728515625
1534599388.881.48773193359,0.617980957031,-0.450134277344
1534599388.881.54113769531,0.686645507812,-0.48828125
1534599388.881.48773193359,0.717163085938,-0.579833984375
1534599388.881.40380859375,0.564575195312,-0.67138671875
1534599388.881.40380859375,0.3662109375,-0.709533691406
1534599388.881.44958496094,0.328063964844,-0.732421875
1534599388.881.53350830078,0.358581542969,-0.679016113281
1534599388.881.65557861328,0.457763671875,-0.67138671875
1534599388.881.79290771484,0.579833984375,-0.6103515625
1534599388.881.79290771484,0.602722167969,-0.648498535156
1534599388.881.68609619141,0.526428222656,-0.656127929688
1534599388.881.36566162109,0.495910644531,-0.572204589844
1534599388.891.28173828125,0.526428222656,-0.648498535156
1534599388.891.28936767578,0.465393066406,-0.679016113281
1534599388.891.3427734375,0.411987304688,-0.663757324219
1534599388.891.39617919922,0.373840332031,-0.679016113281
1534599388.891.44958496094,0.373840332031,-0.694274902344
1534599388.891.50299072266,0.473022460938,-0.717163085938
1534599388.891.55639648438,0.602722167969,-0.686645507812
1534599388.891.64031982422,0.747680664062,-0.679016113281
1534599388.891.70135498047,0.808715820312,-0.801086425781
1534599388.891.67083740234,0.8544921875,-0.900268554688
1534599388.891.54876708984,0.8544921875,-0.862121582031
1534599388.891.47247314453,0.785827636719,-0.770568847656
1534599388.891.52587890625,0.625610351562,-0.656127929688
1534599388.891.64031982422,0.503540039062,-0.6103515625
1534599388.891.72424316406,0.457763671875,-0.579833984375
1534599388.891.86157226562,0.465393066406,-0.511169433594
1534599388.891.8310546875,0.465393066406,-0.511169433594
1534599388.91.73950195312,0.419616699219,-0.587463378906
1534599388.91.53350830078,0.701904296875,-0.663757324219
1534599388.91.57165527344,0.587463378906,-0.625610351562
1534599388.91.51824951172,0.495910644531,-0.534057617188
1534599388.91.33514404297,0.450134277344,-0.465393066406
1534599388.91.3427734375,0.511169433594,-0.518798828125
1534599388.91.45721435547,0.450134277344,-0.54931640625
1534599388.911.52587890625,0.419616699219,-0.663757324219
1534599388.911.45721435547,0.556945800781,-0.724792480469
1534599388.911.46484375,0.816345214844,-0.679016113281
1534599388.911.57165527344,0.938415527344,-0.518798828125
1534599388.911.77001953125,0.953674316406,-0.442504882812
1534599388.911.86920166016,1.04522705078,-0.350952148438
1534599388.911.96075439453,1.06811523438,-0.267028808594
1534599388.911.80053710938,0.900268554688,-0.236511230469
1534599388.911.5869140625,0.724792480469,-0.190734863281
1534599388.911.56402587891,0.556945800781,-0.1220703125
1534599388.921.54113769531,0.335693359375,0.144958496094
1534599388.921.44958496094,0.473022460938,0.137329101562
1534599388.921.29699707031,0.67138671875,0.0762939453125
1534599388.921.36566162109,0.732421875,0.0228881835938
1534599388.921.55639648438,0.701904296875,0.0686645507812
1534599388.921.64794921875,0.6103515625,0.244140625
1534599388.921.65557861328,0.572204589844,0.312805175781
1534599388.921.62506103516,0.465393066406,0.282287597656
1534599388.921.61743164062,0.343322753906,0.205993652344
1534599388.921.63269042969,0.343322753906,0.1220703125
1534599388.921.62506103516,0.457763671875,0.0152587890625
1534599388.921.51062011719,0.465393066406,0.030517578125
1534599388.921.38092041016,0.320434570312,0.106811523438
1534599388.921.33514404297,0.160217285156,0.091552734375
1534599388.921.24359130859,0.1220703125,0.106811523438
1534599388.921.39617919922,0.152587890625,0.0839233398438
1534599388.921.52587890625,0.205993652344,0.0381469726562
1534599388.931.57928466797,0.236511230469,-0.114440917969
1534599388.931.64031982422,0.228881835938,-0.030517578125
1534599388.931.62506103516,0.236511230469,0.0228881835938
1534599388.931.55639648438,0.373840332031,-0.0228881835938
1534599388.931.49536132812,0.518798828125,0.00762939453125
1534599388.931.38092041016,0.480651855469,-0.129699707031
1534599388.931.38092041016,0.411987304688,-0.190734863281
1534599388.931.40380859375,0.190734863281,-0.411987304688
1534599388.931.41143798828,0.335693359375,-0.579833984375
1534599388.941.38092041016,0.457763671875,-0.701904296875
1534599388.941.32751464844,0.419616699219,-0.625610351562
1534599388.941.36566162109,0.526428222656,-0.556945800781
1534599388.941.42669677734,0.541687011719,-0.564575195312
1534599388.941.44195556641,0.457763671875,-0.541687011719
1534599388.941.57165527344,0.419616699219,-0.511169433594
1534599388.941.67846679688,0.3662109375,-0.534057617188
1534599388.941.63269042969,0.465393066406,-0.579833984375
1534599388.941.66320800781,0.617980957031,-0.679016113281
1534599388.941.64031982422,0.679016113281,-0.785827636719
1534599388.941.54876708984,0.67138671875,-0.8544921875
1534599388.941.44195556641,0.694274902344,-0.900268554688
1534599388.941.35803222656,0.663757324219,-0.938415527344
1534599388.941.40380859375,0.625610351562,-0.907897949219
1534599388.941.53350830078,0.534057617188,-0.862121582031
1534599388.941.60217285156,0.526428222656,-0.831604003906
1534599388.941.61743164062,0.526428222656,-0.701904296875
1534599388.941.54876708984,0.602722167969,-0.640869140625
1534599388.941.51824951172,0.67138671875,-0.564575195312
1534599388.951.65557861328,0.564575195312,-0.54931640625
1534599388.951.73950195312,0.625610351562,-0.785827636719
1534599388.951.77001953125,0.663757324219,-0.930786132812
1534599388.951.71661376953,0.663757324219,-0.961303710938
1534599388.951.55639648438,0.6103515625,-0.9765625
1534599388.951.48010253906,0.579833984375,-1.00708007812
1534599388.951.52587890625,0.6103515625,-0.999450683594
1534599388.951.54113769531,0.656127929688,-0.846862792969
1534599388.951.60980224609,0.717163085938,-0.648498535156
1534599388.951.68609619141,0.785827636719,-0.602722167969
1534599388.951.69372558594,0.778198242188,-0.732421875
1534599388.951.60217285156,0.701904296875,-0.816345214844
1534599388.951.60980224609,0.686645507812,-0.79345703125
1534599388.951.71661376953,0.686645507812,-0.656127929688
1534599388.951.75476074219,0.617980957031,-0.648498535156
1534599388.951.80053710938,0.564575195312,-0.724792480469
1534599388.951.77764892578,0.556945800781,-0.694274902344
1534599388.951.66320800781,0.54931640625,-0.617980957031
1534599388.951.48773193359,0.625610351562,-0.694274902344
1534599388.951.26647949219,0.686645507812,-0.79345703125
1534599388.961.28936767578,0.587463378906,-0.747680664062
1534599388.961.48010253906,0.518798828125,-0.686645507812
1534599388.961.59454345703,0.6103515625,-0.686645507812
1534599388.961.63269042969,0.663757324219,-0.679016113281
1534599388.961.63269042969,0.67138671875,-0.587463378906
1534599388.961.50299072266,0.579833984375,-0.419616699219
1534599388.961.51824951172,0.572204589844,-0.373840332031
1534599388.961.53350830078,0.640869140625,-0.396728515625
1534599388.961.48010253906,0.686645507812,-0.450134277344
1534599388.961.49536132812,0.778198242188,-0.495910644531
1534599388.961.55639648438,0.778198242188,-0.450134277344
1534599388.961.64031982422,0.717163085938,-0.411987304688
1534599388.961.70135498047,0.617980957031,-0.389099121094
1534599388.961.64031982422,0.564575195312,-0.434875488281
1534599388.961.57928466797,0.442504882812,-0.373840332031
1534599388.961.56402587891,0.450134277344,-0.350952148438
1534599388.961.44958496094,0.534057617188,-0.30517578125
1534599388.961.3427734375,0.656127929688,-0.30517578125
1534599388.961.38092041016,0.67138671875,-0.312805175781
1534599388.961.50299072266,0.67138671875,-0.312805175781
1534599388.971.5869140625,0.648498535156,-0.358581542969
1534599388.971.62506103516,0.595092773438,-0.335693359375
1534599388.971.59454345703,0.526428222656,-0.167846679688
1534599388.971.52587890625,0.511169433594,-0.091552734375
1534599388.971.49536132812,0.518798828125,-0.137329101562
1534599388.971.44195556641,0.480651855469,-0.244140625
1534599388.971.45721435547,0.42724609375,-0.251770019531
1534599388.971.56402587891,0.404357910156,-0.205993652344
1534599388.971.64031982422,0.480651855469,-0.175476074219
1534599388.971.49536132812,0.465393066406,-0.0228881835938
1534599388.971.50299072266,0.167846679688,0.06103515625
1534599388.971.49536132812,0.221252441406,0.091552734375
1534599388.971.39617919922,0.3662109375,0.06103515625
1534599388.971.22833251953,0.457763671875,-0.0381469726562
1534599388.971.15966796875,0.480651855469,-0.06103515625
1534599388.971.21307373047,0.480651855469,0.0228881835938
1534599388.971.3427734375,0.480651855469,0.106811523438
1534599388.971.44195556641,0.457763671875,0.144958496094
1534599388.981.43432617188,0.411987304688,0.0991821289062
1534599388.981.41906738281,0.434875488281,0.0152587890625
1534599388.981.42669677734,0.473022460938,-0.129699707031
1534599388.981.53350830078,0.534057617188,-0.198364257812
1534599388.981.64794921875,0.579833984375,-0.228881835938
1534599388.981.66320800781,0.534057617188,-0.175476074219
1534599388.981.60217285156,0.411987304688,-0.0457763671875
1534599388.981.64031982422,0.373840332031,0.06103515625
1534599388.981.74713134766,0.450134277344,0.160217285156
1534599388.981.708984375,0.511169433594,0.198364257812
1534599388.981.55639648438,0.518798828125,0.213623046875
1534599388.981.44958496094,0.411987304688,0.167846679688
1534599388.981.41143798828,0.320434570312,0.114440917969
1534599388.981.53350830078,0.358581542969,0.0762939453125
1534599388.981.56402587891,0.381469726562,0.0762939453125
1534599388.981.57928466797,0.343322753906,0.0
1534599388.981.53350830078,0.389099121094,-0.1220703125
1534599388.981.53350830078,0.450134277344,-0.152587890625
1534599388.981.49536132812,0.625610351562,-0.137329101562
1534599388.991.51824951172,0.709533691406,-0.167846679688
1534599388.991.59454345703,0.740051269531,-0.244140625
1534599388.991.64794921875,0.740051269531,-0.282287597656
1534599388.991.62506103516,0.595092773438,-0.221252441406
1534599388.991.60980224609,0.350952148438,-0.160217285156
1534599388.991.54876708984,0.259399414062,-0.228881835938
1534599388.991.53350830078,0.251770019531,-0.343322753906
1534599388.991.51824951172,0.343322753906,-0.419616699219
1534599388.991.51062011719,0.42724609375,-0.457763671875
1534599388.991.54113769531,0.541687011719,-0.396728515625
1534599388.991.63269042969,0.503540039062,-0.30517578125
1534599388.991.77001953125,0.511169433594,-0.30517578125
1534599388.991.74713134766,0.434875488281,-0.274658203125
1534599388.991.70135498047,0.404357910156,-0.373840332031
1534599388.991.64794921875,0.450134277344,-0.473022460938
1534599388.991.54113769531,0.450134277344,-0.541687011719
1534599388.991.49536132812,0.518798828125,-0.503540039062
1534599388.991.52587890625,0.617980957031,-0.473022460938
1534599388.991.48773193359,0.701904296875,-0.54931640625
1534599388.991.44195556641,0.755310058594,-0.709533691406
1534599389.01.35040283203,0.755310058594,-0.846862792969
1534599389.01.28936767578,0.724792480469,-0.885009765625
1534599389.01.30462646484,0.679016113281,-0.816345214844
1534599389.01.41143798828,0.602722167969,-0.778198242188
1534599389.01.60980224609,0.587463378906,-0.709533691406
1534599389.01.75476074219,0.602722167969,-0.740051269531
1534599389.01.74713134766,0.564575195312,-0.732421875
1534599389.01.81579589844,0.617980957031,-0.679016113281
1534599389.01.85394287109,0.656127929688,-0.648498535156
1534599389.01.84631347656,0.709533691406,-0.640869140625
1534599389.01.73950195312,0.8544921875,-0.732421875
1534599389.01.63269042969,1.01470947266,-0.762939453125
1534599389.01.57928466797,0.9765625,-0.885009765625
1534599389.01.54876708984,0.869750976562,-1.00708007812
1534599389.01.42669677734,0.823974609375,-0.999450683594
1534599389.01.31225585938,0.801086425781,-0.877380371094
1534599389.01.35803222656,0.724792480469,-0.839233398438
1534599389.01.51824951172,0.808715820312,-0.8544921875
1534599389.01.66320800781,0.968933105469,-0.862121582031
1534599389.01.69372558594,1.0986328125,-0.900268554688
1534599389.011.64031982422,1.09100341797,-0.930786132812
1534599389.011.60980224609,0.984191894531,-0.946044921875
1534599389.011.56402587891,0.801086425781,-0.91552734375
1534599389.011.5869140625,0.663757324219,-0.892639160156
1534599389.011.5869140625,0.564575195312,-0.869750976562
1534599389.011.67083740234,0.579833984375,-0.823974609375
1534599389.011.73950195312,0.617980957031,-0.808715820312
1534599389.011.708984375,0.679016113281,-0.686645507812
1534599389.011.70135498047,0.762939453125,-0.579833984375
1534599389.011.64794921875,0.717163085938,-0.572204589844
1534599389.011.61743164062,0.747680664062,-0.633239746094
1534599389.011.62506103516,0.816345214844,-0.701904296875
1534599389.011.63269042969,0.823974609375,-0.770568847656
1534599389.011.63269042969,0.67138671875,-0.785827636719
1534599389.011.70135498047,0.625610351562,-0.801086425781
1534599389.011.72424316406,0.595092773438,-0.778198242188
1534599389.011.69372558594,0.54931640625,-0.694274902344
1534599389.011.52587890625,0.54931640625,-0.648498535156
1534599389.011.38092041016,0.564575195312,-0.518798828125
1534599389.021.35040283203,0.648498535156,-0.3662109375
1534599389.021.40380859375,0.846862792969,-0.30517578125
1534599389.021.45721435547,0.91552734375,-0.244140625
1534599389.021.51824951172,0.968933105469,-0.198364257812
1534599389.021.54113769531,0.9765625,-0.320434570312
1534599389.021.48773193359,0.808715820312,-0.480651855469
1534599389.021.39617919922,0.648498535156,-0.587463378906
1534599389.021.41906738281,0.595092773438,-0.518798828125
1534599389.021.55639648438,0.67138671875,-0.312805175781
1534599389.021.60980224609,0.717163085938,-0.213623046875
1534599389.021.67846679688,0.656127929688,-0.221252441406
1534599389.021.62506103516,0.526428222656,-0.297546386719
1534599389.021.54876708984,0.495910644531,-0.312805175781
1534599389.021.48010253906,0.434875488281,-0.343322753906
1534599389.021.49536132812,0.411987304688,-0.267028808594
1534599389.021.57165527344,0.434875488281,-0.18310546875
1534599389.021.65557861328,0.434875488281,-0.1220703125
1534599389.021.69372558594,0.358581542969,-0.1220703125
1534599389.021.71661376953,0.404357910156,-0.0839233398438
1534599389.031.62506103516,0.419616699219,-0.00762939453125
1534599389.031.55639648438,0.381469726562,-0.0152587890625
1534599389.031.5869140625,0.320434570312,0.00762939453125
1534599389.031.67083740234,0.228881835938,0.06103515625
1534599389.031.73950195312,0.228881835938,0.0534057617188
1534599389.031.67846679688,0.328063964844,0.091552734375
1534599389.031.54113769531,0.457763671875,0.152587890625
1534599389.031.41143798828,0.572204589844,0.144958496094
1534599389.031.39617919922,0.679016113281,0.0839233398438
1534599389.031.44958496094,0.633239746094,0.0228881835938
1534599389.031.54113769531,0.511169433594,0.0228881835938
1534599389.031.51062011719,0.381469726562,0.0457763671875
1534599389.031.48010253906,0.320434570312,0.0
1534599389.041.51824951172,0.381469726562,-0.0457763671875
1534599389.041.41143798828,0.0686645507812,0.030517578125
1534599389.041.5869140625,0.419616699219,-0.0991821289062
1534599389.041.54113769531,0.18310546875,-0.175476074219
1534599389.041.38854980469,0.18310546875,-0.289916992188
1534599389.041.35803222656,0.373840332031,-0.320434570312
1534599389.041.48010253906,0.48828125,-0.3662109375
1534599389.051.52587890625,0.694274902344,-0.434875488281
1534599389.051.38092041016,0.67138671875,-0.511169433594
1534599389.051.37329101562,0.503540039062,-0.587463378906
1534599389.051.3427734375,0.404357910156,-0.617980957031
1534599389.051.31988525391,0.3662109375,-0.640869140625
1534599389.051.48010253906,0.320434570312,-0.617980957031
1534599389.051.64794921875,0.289916992188,-0.67138671875
1534599389.051.67846679688,0.343322753906,-0.602722167969
1534599389.051.56402587891,0.572204589844,-0.709533691406
1534599389.051.54876708984,0.717163085938,-0.907897949219
1534599389.061.59454345703,0.8544921875,-1.05285644531
1534599389.061.46484375,0.450134277344,-0.923156738281
1534599389.061.67846679688,0.556945800781,-1.06811523438
1534599389.061.70135498047,0.823974609375,-1.08337402344
1534599389.061.70135498047,0.938415527344,-0.938415527344
1534599389.061.79290771484,0.930786132812,-0.717163085938
1534599389.061.88446044922,0.907897949219,-0.701904296875
1534599389.061.80053710938,0.877380371094,-0.778198242188
1534599389.061.63269042969,0.770568847656,-0.808715820312
1534599389.061.48010253906,0.694274902344,-0.79345703125
1534599389.061.44195556641,0.740051269531,-0.778198242188
1534599389.061.51062011719,0.823974609375,-0.762939453125
1534599389.071.51062011719,0.839233398438,-0.79345703125
1534599389.071.51824951172,0.823974609375,-0.823974609375
1534599389.071.46484375,0.717163085938,-0.724792480469
1534599389.071.38092041016,0.694274902344,-0.617980957031
1534599389.071.43432617188,0.823974609375,-0.595092773438
1534599389.071.55639648438,0.91552734375,-0.541687011719
1534599389.071.68609619141,0.923156738281,-0.3662109375
1534599389.071.68609619141,0.79345703125,-0.48828125
1534599389.071.57165527344,0.579833984375,-0.419616699219
1534599389.071.66320800781,0.572204589844,-0.350952148438
1534599389.081.76239013672,0.694274902344,-0.312805175781
1534599389.081.80816650391,0.770568847656,-0.30517578125
1534599389.081.78527832031,0.808715820312,-0.251770019531
1534599389.081.57928466797,0.595092773438,-0.175476074219
1534599389.081.54113769531,0.473022460938,-0.152587890625
1534599389.081.46484375,0.419616699219,-0.160217285156
1534599389.081.47247314453,0.343322753906,-0.0534057617188
1534599389.081.47247314453,0.244140625,0.06103515625
1534599389.081.51824951172,0.213623046875,0.144958496094
1534599389.081.62506103516,0.312805175781,0.152587890625
1534599389.081.62506103516,0.465393066406,0.106811523438
1534599389.081.50299072266,0.602722167969,0.091552734375
1534599389.081.51824951172,0.350952148438,0.1220703125
1534599389.091.47247314453,0.381469726562,0.0381469726562
1534599389.091.41906738281,0.457763671875,0.0
1534599389.091.27410888672,0.518798828125,-0.091552734375
1534599389.091.25885009766,0.450134277344,-0.137329101562
1534599389.091.44195556641,0.434875488281,-0.129699707031
1534599389.091.59454345703,0.389099121094,-0.0991821289062
1534599389.091.67846679688,0.350952148438,-0.091552734375
1534599389.091.66320800781,0.343322753906,0.030517578125
1534599389.091.51824951172,0.282287597656,0.190734863281
1534599389.091.46484375,0.259399414062,0.205993652344
1534599389.091.48773193359,0.328063964844,0.114440917969
1534599389.091.46484375,0.465393066406,-0.030517578125
1534599389.091.44195556641,0.648498535156,-0.106811523438
1534599389.091.41143798828,0.633239746094,-0.1220703125
1534599389.091.44195556641,0.503540039062,-0.160217285156
1534599389.091.45721435547,0.358581542969,-0.106811523438
1534599389.091.42669677734,0.358581542969,-0.0686645507812
1534599389.091.40380859375,0.373840332031,-0.129699707031
1534599389.091.45721435547,0.419616699219,-0.167846679688
1534599389.11.61743164062,0.381469726562,-0.228881835938
1534599389.11.67846679688,0.381469726562,-0.221252441406
1534599389.11.73187255859,0.373840332031,-0.205993652344
1534599389.11.67083740234,0.3662109375,-0.213623046875
1534599389.11.51062011719,0.373840332031,-0.198364257812
1534599389.11.29699707031,0.381469726562,-0.152587890625
1534599389.11.28936767578,0.442504882812,-0.175476074219
1534599389.11.35803222656,0.495910644531,-0.267028808594
1534599389.11.38092041016,0.640869140625,-0.381469726562
1534599389.11.41906738281,0.724792480469,-0.572204589844
1534599389.11.47247314453,0.701904296875,-0.602722167969
1534599389.11.52587890625,0.656127929688,-0.663757324219
1534599389.11.54113769531,0.701904296875,-0.679016113281
1534599389.11.52587890625,0.648498535156,-0.663757324219
1534599389.11.49536132812,0.67138671875,-0.6103515625
1534599389.11.47247314453,0.694274902344,-0.6103515625
1534599389.11.48010253906,0.747680664062,-0.679016113281
1534599389.11.49536132812,0.816345214844,-0.732421875
1534599389.11.50299072266,0.762939453125,-0.717163085938
1534599389.11.51062011719,0.717163085938,-0.79345703125
1534599389.111.57928466797,0.595092773438,-0.816345214844
1534599389.111.62506103516,0.534057617188,-0.785827636719
1534599389.111.64794921875,0.419616699219,-0.816345214844
1534599389.111.57165527344,0.358581542969,-0.869750976562
1534599389.111.57928466797,0.404357910156,-0.846862792969
1534599389.111.60980224609,0.411987304688,-0.839233398438
1534599389.111.60217285156,0.404357910156,-0.79345703125
1534599389.111.60217285156,0.473022460938,-0.640869140625
1534599389.111.61743164062,0.572204589844,-0.534057617188
1534599389.111.67083740234,0.595092773438,-0.48828125
1534599389.111.65557861328,0.709533691406,-0.572204589844
1534599389.111.53350830078,0.79345703125,-0.732421875
1534599389.111.44195556641,0.839233398438,-0.862121582031
1534599389.111.43432617188,0.900268554688,-0.930786132812
1534599389.111.49536132812,0.91552734375,-1.00708007812
1534599389.111.51824951172,0.869750976562,-1.02996826172
1534599389.111.53350830078,0.709533691406,-0.984191894531
1534599389.111.59454345703,0.579833984375,-0.930786132812
1534599389.111.60217285156,0.541687011719,-0.831604003906
1534599389.121.43432617188,0.602722167969,-0.755310058594
1534599389.121.46484375,0.740051269531,-0.747680664062
1534599389.121.60217285156,0.770568847656,-0.862121582031
1534599389.121.67846679688,0.740051269531,-0.923156738281
1534599389.121.64794921875,0.740051269531,-0.9765625
1534599389.121.62506103516,0.755310058594,-1.04522705078
1534599389.121.61743164062,0.801086425781,-1.01470947266
1534599389.121.60217285156,0.869750976562,-0.892639160156
1534599389.121.57165527344,0.907897949219,-0.862121582031
1534599389.121.52587890625,0.862121582031,-0.877380371094
1534599389.121.63269042969,0.770568847656,-0.663757324219
1534599389.121.64031982422,0.617980957031,-0.625610351562
1534599389.121.57165527344,0.511169433594,-0.640869140625
1534599389.121.54876708984,0.526428222656,-0.617980957031
1534599389.121.53350830078,0.579833984375,-0.648498535156
1534599389.121.62506103516,0.701904296875,-0.633239746094
1534599389.121.56402587891,0.709533691406,-0.633239746094
1534599389.121.51824951172,0.67138671875,-0.67138671875
1534599389.121.53350830078,0.762939453125,-0.694274902344
1534599389.131.57928466797,0.808715820312,-0.602722167969
1534599389.131.60217285156,0.816345214844,-0.503540039062
1534599389.131.61743164062,0.808715820312,-0.396728515625
1534599389.131.5869140625,0.755310058594,-0.373840332031
1534599389.131.54876708984,0.709533691406,-0.389099121094
1534599389.131.54113769531,0.633239746094,-0.389099121094
1534599389.131.55639648438,0.633239746094,-0.411987304688
1534599389.131.64794921875,0.709533691406,-0.473022460938
1534599389.131.70135498047,0.732421875,-0.495910644531
1534599389.131.61743164062,0.648498535156,-0.396728515625
1534599389.131.62506103516,0.526428222656,-0.282287597656
1534599389.131.57928466797,0.48828125,-0.213623046875
1534599389.131.55639648438,0.3662109375,-0.205993652344
1534599389.131.55639648438,0.3662109375,-0.18310546875
1534599389.131.53350830078,0.419616699219,-0.205993652344
1534599389.131.63269042969,0.3662109375,-0.160217285156
1534599389.131.66320800781,0.358581542969,-0.0762939453125
1534599389.131.56402587891,0.373840332031,-0.0457763671875
1534599389.131.46484375,0.350952148438,0.0228881835938
1534599389.131.41906738281,0.404357910156,0.0
1534599389.141.39617919922,0.480651855469,0.030517578125
1534599389.141.48773193359,0.6103515625,0.0839233398438
1534599389.141.54113769531,0.686645507812,0.160217285156
1534599389.141.54113769531,0.694274902344,0.114440917969
1534599389.141.48773193359,0.595092773438,-0.0839233398438
1534599389.141.46484375,0.42724609375,-0.236511230469
1534599389.141.44958496094,0.274658203125,-0.221252441406
1534599389.141.44958496094,0.129699707031,-0.129699707031
1534599389.141.54876708984,0.198364257812,-0.0534057617188
1534599389.141.55639648438,0.434875488281,-0.06103515625
1534599389.141.50299072266,0.42724609375,-0.030517578125
1534599389.141.54876708984,0.457763671875,0.0228881835938
1534599389.141.60217285156,0.54931640625,0.0534057617188
1534599389.141.60980224609,0.54931640625,0.0381469726562
1534599389.141.54113769531,0.587463378906,0.0457763671875
1534599389.141.48773193359,0.526428222656,-0.06103515625
1534599389.141.50299072266,0.48828125,-0.0762939453125
1534599389.141.54113769531,0.518798828125,-0.06103515625
1534599389.141.51062011719,0.541687011719,-0.030517578125
1534599389.141.53350830078,0.54931640625,0.0381469726562
1534599389.151.59454345703,0.572204589844,0.0457763671875
1534599389.151.60980224609,0.572204589844,0.0839233398438
1534599389.151.64794921875,0.556945800781,0.0762939453125
1534599389.151.66320800781,0.579833984375,0.030517578125
1534599389.151.64794921875,0.595092773438,-0.00762939453125
1534599389.151.54113769531,0.587463378906,-0.0457763671875
1534599389.151.46484375,0.534057617188,-0.091552734375
1534599389.151.44958496094,0.480651855469,-0.0457763671875
1534599389.151.47247314453,0.48828125,-0.00762939453125
1534599389.151.48010253906,0.473022460938,-0.00762939453125
1534599389.151.53350830078,0.457763671875,-0.091552734375
1534599389.151.61743164062,0.450134277344,-0.114440917969
1534599389.151.64031982422,0.396728515625,-0.160217285156
1534599389.151.70135498047,0.404357910156,-0.190734863281
1534599389.151.708984375,0.358581542969,-0.106811523438
1534599389.151.56402587891,0.320434570312,-0.00762939453125
1534599389.151.35040283203,0.343322753906,0.0381469726562
1534599389.151.31988525391,0.450134277344,0.0381469726562
1534599389.151.33514404297,0.579833984375,-0.0381469726562
1534599389.151.33514404297,0.633239746094,-0.175476074219
1534599389.161.35040283203,0.602722167969,-0.175476074219
1534599389.161.48010253906,0.518798828125,-0.205993652344
1534599389.161.44958496094,0.442504882812,-0.381469726562
1534599389.161.39617919922,0.350952148438,-0.556945800781
1534599389.161.46484375,0.236511230469,-0.656127929688
1534599389.161.56402587891,0.297546386719,-0.67138671875
1534599389.161.65557861328,0.442504882812,-0.617980957031
1534599389.161.78527832031,0.534057617188,-0.473022460938
1534599389.161.80053710938,0.640869140625,-0.335693359375
1534599389.161.79290771484,0.831604003906,-0.205993652344
1534599389.161.72424316406,0.923156738281,-0.198364257812
1534599389.161.62506103516,0.8544921875,-0.320434570312
1534599389.161.52587890625,0.808715820312,-0.534057617188
1534599389.161.54876708984,0.801086425781,-0.755310058594
1534599389.161.60217285156,0.770568847656,-0.823974609375
1534599389.161.69372558594,0.6103515625,-0.732421875
1534599389.161.72424316406,0.556945800781,-0.67138671875
1534599389.161.73950195312,0.656127929688,-0.579833984375
1534599389.161.73950195312,0.686645507812,-0.541687011719
1534599389.171.75476074219,0.640869140625,-0.602722167969
1534599389.171.64794921875,0.663757324219,-0.679016113281
1534599389.171.64031982422,0.6103515625,-0.686645507812
1534599389.171.69372558594,0.518798828125,-0.679016113281
1534599389.171.708984375,0.450134277344,-0.679016113281
1534599389.171.708984375,0.442504882812,-0.686645507812
1534599389.171.62506103516,0.556945800781,-0.6103515625
1534599389.171.56402587891,0.617980957031,-0.602722167969
1534599389.171.52587890625,0.717163085938,-0.686645507812
1534599389.171.45721435547,0.755310058594,-0.740051269531
1534599389.171.42669677734,0.732421875,-0.770568847656
1534599389.171.38854980469,0.724792480469,-0.778198242188
1534599389.171.41143798828,0.762939453125,-0.755310058594
1534599389.171.45721435547,0.648498535156,-0.732421875
1534599389.171.59454345703,0.450134277344,-0.778198242188
1534599389.171.64794921875,0.343322753906,-0.930786132812
1534599389.171.67083740234,0.30517578125,-0.984191894531
1534599389.171.66320800781,0.419616699219,-0.938415527344
1534599389.171.64794921875,0.54931640625,-0.9765625
1534599389.171.59454345703,0.633239746094,-0.984191894531
1534599389.181.51062011719,0.717163085938,-0.892639160156
1534599389.181.46484375,0.79345703125,-0.717163085938
1534599389.181.41143798828,0.816345214844,-0.572204589844
1534599389.181.41906738281,0.885009765625,-0.587463378906
1534599389.181.52587890625,0.900268554688,-0.6103515625
1534599389.181.51824951172,0.862121582031,-0.732421875
1534599389.181.44958496094,0.816345214844,-0.869750976562
1534599389.181.35040283203,0.808715820312,-0.892639160156
1534599389.181.3427734375,0.755310058594,-0.999450683594
1534599389.181.45721435547,0.701904296875,-0.984191894531
1534599389.181.45721435547,0.625610351562,-0.877380371094
1534599389.181.48773193359,0.625610351562,-0.785827636719
1534599389.181.54876708984,0.595092773438,-0.602722167969
1534599389.181.67083740234,0.564575195312,-0.495910644531
1534599389.181.76239013672,0.541687011719,-0.473022460938
1534599389.181.63269042969,0.526428222656,-0.465393066406
1534599389.181.55639648438,0.518798828125,-0.511169433594
1534599389.181.55639648438,0.556945800781,-0.656127929688
1534599389.181.55639648438,0.587463378906,-0.701904296875
1534599389.181.48773193359,0.694274902344,-0.717163085938
1534599389.191.45721435547,0.732421875,-0.701904296875
1534599389.191.36566162109,0.694274902344,-0.656127929688
1534599389.191.35803222656,0.724792480469,-0.579833984375
1534599389.191.41906738281,0.709533691406,-0.511169433594
1534599389.191.49536132812,0.640869140625,-0.480651855469
1534599389.191.53350830078,0.679016113281,-0.389099121094
1534599389.191.49536132812,0.67138671875,-0.30517578125
1534599389.191.43432617188,0.625610351562,-0.228881835938
1534599389.21.63269042969,0.30517578125,0.0534057617188
1534599389.21.63269042969,0.633239746094,-0.091552734375
1534599389.21.54876708984,0.602722167969,-0.030517578125
1534599389.21.50299072266,0.572204589844,0.0381469726562
1534599389.21.55639648438,0.587463378906,0.106811523438
1534599389.21.66320800781,0.511169433594,0.1220703125
1534599389.211.67846679688,0.465393066406,0.0152587890625
1534599389.211.70135498047,0.602722167969,0.137329101562
1534599389.211.67083740234,0.663757324219,-0.030517578125
1534599389.211.708984375,0.6103515625,-0.0762939453125
1534599389.211.73187255859,0.503540039062,-0.144958496094
1534599389.211.65557861328,0.411987304688,-0.236511230469
1534599389.211.43432617188,0.289916992188,-0.282287597656
1534599389.211.44195556641,0.228881835938,-0.18310546875
1534599389.211.46484375,0.244140625,-0.0457763671875
1534599389.211.41143798828,0.389099121094,-0.091552734375
1534599389.211.55639648438,0.465393066406,-0.320434570312
1534599389.211.708984375,0.518798828125,-0.389099121094
1534599389.211.77001953125,0.564575195312,-0.358581542969
1534599389.211.59454345703,0.450134277344,-0.358581542969
1534599389.211.51062011719,0.411987304688,-0.389099121094
1534599389.221.51062011719,0.411987304688,-0.450134277344
1534599389.221.65557861328,0.54931640625,-0.534057617188
1534599389.221.67846679688,0.617980957031,-0.572204589844
1534599389.221.64031982422,0.709533691406,-0.572204589844
1534599389.221.52587890625,0.595092773438,-0.541687011719
1534599389.231.37329101562,0.404357910156,-0.457763671875
1534599389.231.41143798828,0.495910644531,-0.79345703125
1534599389.231.40380859375,0.572204589844,-0.91552734375
1534599389.231.33514404297,0.724792480469,-1.02233886719
1534599389.231.21307373047,0.785827636719,-0.9765625
1534599389.231.20544433594,0.801086425781,-0.91552734375
1534599389.231.50299072266,0.923156738281,-0.885009765625
1534599389.231.68609619141,0.900268554688,-0.984191894531
1534599389.231.77001953125,0.946044921875,-1.02233886719
1534599389.231.80053710938,1.06048583984,-0.946044921875
1534599389.231.66320800781,0.991821289062,-0.839233398438
1534599389.231.48773193359,0.839233398438,-0.846862792969
1534599389.231.37329101562,0.808715820312,-0.839233398438
1534599389.231.43432617188,0.770568847656,-0.991821289062
1534599389.231.48773193359,0.785827636719,-1.04522705078
1534599389.241.64794921875,0.778198242188,-1.02996826172
1534599389.241.80816650391,0.67138671875,-1.08337402344
1534599389.241.79290771484,0.457763671875,-1.12152099609
1534599389.241.48010253906,0.663757324219,-0.625610351562
1534599389.241.44958496094,0.79345703125,-0.602722167969
1534599389.241.64794921875,0.656127929688,-0.8544921875
1534599389.241.62506103516,0.694274902344,-0.862121582031
1534599389.241.60980224609,0.701904296875,-0.892639160156
1534599389.241.45721435547,0.694274902344,-0.816345214844
1534599389.241.31988525391,0.755310058594,-0.67138671875
1534599389.241.28936767578,0.839233398438,-0.534057617188
1534599389.241.38854980469,0.8544921875,-0.442504882812
1534599389.241.48773193359,0.801086425781,-0.42724609375
1534599389.241.5869140625,0.747680664062,-0.534057617188
1534599389.251.68609619141,0.526428222656,-0.556945800781
1534599389.251.57928466797,0.541687011719,-0.473022460938
1534599389.251.49536132812,0.541687011719,-0.465393066406
1534599389.251.44195556641,0.6103515625,-0.473022460938
1534599389.251.38854980469,0.625610351562,-0.373840332031
1534599389.251.48773193359,0.640869140625,-0.213623046875
1534599389.251.59454345703,0.663757324219,-0.18310546875
1534599389.251.73187255859,0.335693359375,-0.137329101562
1534599389.251.71661376953,0.213623046875,-0.152587890625
1534599389.251.60980224609,0.289916992188,-0.137329101562
1534599389.251.60217285156,0.434875488281,-0.106811523438
1534599389.251.65557861328,0.495910644531,-0.0228881835938
1534599389.251.74713134766,0.54931640625,0.0457763671875
1534599389.251.76239013672,0.579833984375,0.06103515625
1534599389.251.86920166016,0.473022460938,0.18310546875
1534599389.251.97601318359,0.381469726562,0.213623046875
1534599389.251.97601318359,0.434875488281,0.167846679688
1534599389.251.86920166016,0.434875488281,0.00762939453125
1534599389.261.80053710938,0.343322753906,-0.091552734375
1534599389.261.71661376953,0.343322753906,-0.030517578125
1534599389.261.61743164062,0.320434570312,0.0762939453125
1534599389.261.55639648438,0.297546386719,0.175476074219
1534599389.261.47247314453,0.404357910156,0.030517578125
1534599389.261.63269042969,0.267028808594,0.091552734375
1534599389.261.64031982422,0.205993652344,-0.0839233398438
1534599389.261.62506103516,0.198364257812,-0.0762939453125
1534599389.261.56402587891,0.274658203125,-0.0381469726562
1534599389.261.45721435547,0.473022460938,0.091552734375
1534599389.261.41906738281,0.42724609375,0.0991821289062
1534599389.261.41906738281,0.3662109375,0.137329101562
1534599389.261.44195556641,0.251770019531,0.213623046875
1534599389.261.44958496094,0.137329101562,0.236511230469
1534599389.261.52587890625,0.106811523438,0.167846679688
1534599389.261.5869140625,0.213623046875,0.160217285156
1534599389.271.54113769531,0.282287597656,0.175476074219
1534599389.271.35803222656,0.358581542969,0.0534057617188
1534599389.271.24359130859,0.503540039062,-0.091552734375
1534599389.271.28936767578,0.633239746094,-0.175476074219
1534599389.271.35803222656,0.679016113281,-0.205993652344
1534599389.271.42669677734,0.595092773438,-0.091552734375
1534599389.271.47247314453,0.518798828125,0.0152587890625
1534599389.271.46484375,0.442504882812,0.00762939453125
1534599389.271.32751464844,0.30517578125,-0.152587890625
1534599389.271.26647949219,0.205993652344,-0.205993652344
1534599389.271.33514404297,0.213623046875,-0.18310546875
1534599389.271.42669677734,0.358581542969,-0.129699707031
1534599389.271.49536132812,0.579833984375,-0.175476074219
1534599389.271.56402587891,0.648498535156,-0.267028808594
1534599389.271.63269042969,0.579833984375,-0.3662109375
1534599389.271.63269042969,0.396728515625,-0.503540039062
1534599389.271.44195556641,0.282287597656,-0.534057617188
1534599389.271.28936767578,0.282287597656,-0.54931640625
1534599389.281.27410888672,0.358581542969,-0.541687011719
1534599389.281.41906738281,0.54931640625,-0.434875488281
1534599389.281.57165527344,0.656127929688,-0.335693359375
1534599389.281.65557861328,0.717163085938,-0.274658203125
1534599389.281.708984375,0.709533691406,-0.335693359375
1534599389.281.56402587891,0.694274902344,-0.381469726562
1534599389.281.3427734375,0.587463378906,-0.465393066406
1534599389.281.32751464844,0.656127929688,-0.534057617188
1534599389.281.44958496094,0.755310058594,-0.679016113281
1534599389.281.59454345703,0.740051269531,-0.770568847656
1534599389.281.73187255859,0.724792480469,-0.839233398438
1534599389.281.70135498047,0.663757324219,-0.778198242188
1534599389.281.54113769531,0.6103515625,-0.701904296875
1534599389.281.51062011719,0.54931640625,-0.656127929688
1534599389.281.46484375,0.503540039062,-0.656127929688
1534599389.281.44958496094,0.48828125,-0.701904296875
1534599389.281.43432617188,0.556945800781,-0.823974609375
1534599389.281.46484375,0.587463378906,-0.938415527344
1534599389.281.57165527344,0.518798828125,-0.961303710938
1534599389.281.62506103516,0.526428222656,-1.02996826172
1534599389.291.60217285156,0.625610351562,-1.02996826172
1534599389.291.60217285156,0.54931640625,-1.02996826172
1534599389.291.63269042969,0.442504882812,-1.00708007812
1534599389.291.57928466797,0.434875488281,-0.930786132812
1534599389.291.50299072266,0.587463378906,-0.823974609375
1534599389.291.46484375,0.770568847656,-0.785827636719
1534599389.291.51062011719,0.869750976562,-0.839233398438
1534599389.291.64794921875,0.923156738281,-0.839233398438
1534599389.291.68609619141,0.930786132812,-0.79345703125
1534599389.291.60980224609,0.968933105469,-0.717163085938
1534599389.291.52587890625,0.923156738281,-0.709533691406
1534599389.291.43432617188,0.938415527344,-0.808715820312
1534599389.291.37329101562,0.953674316406,-0.8544921875
1534599389.291.42669677734,0.953674316406,-0.79345703125
1534599389.291.49536132812,0.900268554688,-0.732421875
1534599389.291.59454345703,0.846862792969,-0.701904296875
1534599389.291.64031982422,0.900268554688,-0.694274902344
1534599389.291.68609619141,1.00708007812,-0.648498535156
1534599389.291.60217285156,1.05285644531,-0.694274902344
1534599389.291.57165527344,1.04522705078,-0.808715820312
1534599389.31.59454345703,0.968933105469,-0.8544921875
1534599389.31.70135498047,0.877380371094,-0.831604003906
1534599389.31.81579589844,0.79345703125,-0.877380371094
1534599389.31.86157226562,0.724792480469,-0.831604003906
1534599389.31.73187255859,0.579833984375,-0.740051269531
1534599389.31.54876708984,0.572204589844,-0.67138671875
1534599389.31.44958496094,0.617980957031,-0.732421875
1534599389.31.39617919922,0.67138671875,-0.747680664062
1534599389.31.35803222656,0.762939453125,-0.701904296875
1534599389.31.35803222656,0.755310058594,-0.579833984375
1534599389.31.42669677734,0.686645507812,-0.419616699219
1534599389.31.53350830078,0.724792480469,-0.328063964844
1534599389.31.61743164062,0.679016113281,-0.343322753906
1534599389.31.60217285156,0.503540039062,-0.350952148438
1534599389.31.59454345703,0.442504882812,-0.335693359375
1534599389.31.68609619141,0.518798828125,-0.312805175781
1534599389.31.74713134766,0.518798828125,-0.221252441406
1534599389.31.77764892578,0.54931640625,-0.274658203125
1534599389.31.76239013672,0.541687011719,-0.335693359375
1534599389.311.68609619141,0.54931640625,-0.419616699219
1534599389.311.62506103516,0.495910644531,-0.480651855469
1534599389.311.65557861328,0.442504882812,-0.442504882812
1534599389.311.74713134766,0.511169433594,-0.328063964844
1534599389.311.68609619141,0.564575195312,-0.289916992188
1534599389.311.60980224609,0.457763671875,-0.274658203125
1534599389.311.50299072266,0.350952148438,-0.160217285156
1534599389.311.47247314453,0.350952148438,-0.0534057617188
1534599389.311.49536132812,0.42724609375,0.0457763671875
1534599389.311.57928466797,0.42724609375,0.091552734375
1534599389.311.62506103516,0.404357910156,0.144958496094
1534599389.311.55639648438,0.373840332031,0.152587890625
1534599389.311.46484375,0.465393066406,0.106811523438
1534599389.311.45721435547,0.564575195312,-0.0228881835938
1534599389.311.52587890625,0.587463378906,-0.198364257812
1534599389.311.57928466797,0.587463378906,-0.251770019531
1534599389.311.57928466797,0.473022460938,-0.106811523438
1534599389.311.52587890625,0.541687011719,0.0534057617188
1534599389.311.43432617188,0.564575195312,0.167846679688
1534599389.321.38092041016,0.572204589844,0.106811523438
1534599389.321.40380859375,0.396728515625,-0.0686645507812
1534599389.321.44958496094,0.419616699219,-0.106811523438
1534599389.321.44195556641,0.579833984375,0.00762939453125
1534599389.321.45721435547,0.617980957031,0.129699707031
1534599389.321.42669677734,0.625610351562,0.274658203125
1534599389.321.36566162109,0.503540039062,0.190734863281
1534599389.321.32751464844,0.274658203125,0.06103515625
1534599389.321.31225585938,0.091552734375,-0.091552734375
1534599389.321.37329101562,0.0686645507812,-0.259399414062
1534599389.321.45721435547,0.0839233398438,-0.274658203125
1534599389.321.51824951172,0.114440917969,-0.350952148438
1534599389.321.54113769531,0.259399414062,-0.373840332031
1534599389.321.51824951172,0.228881835938,-0.442504882812
1534599389.321.52587890625,0.18310546875,-0.457763671875
1534599389.321.54876708984,0.267028808594,-0.419616699219
1534599389.321.51824951172,0.30517578125,-0.297546386719
1534599389.321.48010253906,0.289916992188,-0.1220703125
1534599389.321.40380859375,0.328063964844,0.114440917969
1534599389.321.39617919922,0.480651855469,0.228881835938
1534599389.331.40380859375,0.480651855469,0.129699707031
1534599389.331.37329101562,0.473022460938,-0.030517578125
1534599389.331.42669677734,0.442504882812,-0.18310546875
1534599389.331.48773193359,0.419616699219,-0.259399414062
1534599389.331.51062011719,0.434875488281,-0.297546386719
1534599389.331.49536132812,0.564575195312,-0.404357910156
1534599389.331.53350830078,0.709533691406,-0.335693359375
1534599389.331.63269042969,0.694274902344,-0.297546386719
1534599389.331.81579589844,0.526428222656,-0.175476074219
1534599389.331.94549560547,0.320434570312,-0.175476074219
1534599389.331.96075439453,0.244140625,-0.244140625
1534599389.331.88446044922,0.320434570312,-0.328063964844
1534599389.331.74713134766,0.419616699219,-0.343322753906
1534599389.331.5869140625,0.48828125,-0.274658203125
1534599389.331.56402587891,0.602722167969,-0.328063964844
1534599389.331.74713134766,0.740051269531,-0.411987304688
1534599389.331.708984375,0.778198242188,-0.572204589844
1534599389.341.38854980469,0.747680664062,-0.648498535156
1534599389.341.76239013672,0.770568847656,-0.900268554688
1534599389.341.75476074219,0.816345214844,-0.869750976562
1534599389.341.708984375,0.823974609375,-0.831604003906
1534599389.351.63269042969,0.862121582031,-0.747680664062
1534599389.351.49536132812,0.701904296875,-0.953674316406
1534599389.351.52587890625,0.701904296875,-0.862121582031
1534599389.351.57165527344,0.755310058594,-0.808715820312
1534599389.351.56402587891,0.701904296875,-0.869750976562
1534599389.351.57928466797,0.679016113281,-0.938415527344
1534599389.351.51824951172,0.831604003906,-0.495910644531
1534599389.351.72424316406,0.808715820312,-0.518798828125
1534599389.351.68609619141,0.877380371094,-0.534057617188
1534599389.351.60217285156,0.862121582031,-0.534057617188
1534599389.361.67083740234,0.770568847656,-0.54931640625
1534599389.361.64794921875,0.6103515625,-0.442504882812
1534599389.361.63269042969,0.541687011719,-0.404357910156
1534599389.361.39617919922,0.442504882812,-0.373840332031
1534599389.361.33514404297,0.457763671875,-0.42724609375
1534599389.361.39617919922,0.511169433594,-0.495910644531
1534599389.361.41906738281,0.625610351562,-0.564575195312
1534599389.361.49536132812,0.648498535156,-0.503540039062
1534599389.361.67846679688,0.503540039062,-0.328063964844
1534599389.361.73950195312,0.434875488281,-0.198364257812
1534599389.361.708984375,0.328063964844,-0.106811523438
1534599389.371.73187255859,0.404357910156,-0.160217285156
1534599389.371.38092041016,0.282287597656,-0.0457763671875
1534599389.371.29699707031,0.442504882812,0.0534057617188
1534599389.371.27410888672,0.6103515625,0.144958496094
1534599389.371.31225585938,0.526428222656,0.144958496094
1534599389.371.40380859375,0.373840332031,0.106811523438
1534599389.371.37329101562,0.343322753906,-0.0839233398438
1534599389.371.27410888672,0.312805175781,-0.213623046875
1534599389.371.23596191406,0.312805175781,-0.228881835938
1534599389.381.32751464844,0.297546386719,-0.190734863281
1534599389.381.36566162109,0.221252441406,-0.175476074219
1534599389.381.29699707031,0.144958496094,-0.129699707031
1534599389.381.43432617188,0.167846679688,-0.0686645507812
1534599389.381.62506103516,0.320434570312,-0.137329101562
1534599389.381.64031982422,0.251770019531,-0.1220703125
1534599389.381.63269042969,0.190734863281,-0.0381469726562
1534599389.381.64794921875,0.350952148438,-0.0457763671875
1534599389.381.72424316406,0.473022460938,-0.0991821289062
1534599389.381.31225585938,0.251770019531,-0.144958496094
1534599389.381.38092041016,0.30517578125,-0.0762939453125
1534599389.381.51824951172,0.404357910156,-0.091552734375
1534599389.381.44958496094,0.465393066406,-0.0686645507812
1534599389.391.43432617188,0.526428222656,-0.213623046875
1534599389.391.51062011719,0.640869140625,-0.48828125
1534599389.391.62506103516,0.663757324219,-0.541687011719
1534599389.391.65557861328,0.572204589844,-0.442504882812
1534599389.391.48010253906,0.473022460938,-0.42724609375
1534599389.391.41906738281,0.48828125,-0.480651855469
1534599389.391.39617919922,0.541687011719,-0.495910644531
1534599389.391.41143798828,0.564575195312,-0.48828125
1534599389.391.44958496094,0.495910644531,-0.42724609375
1534599389.391.42669677734,0.465393066406,-0.350952148438
1534599389.391.36566162109,0.518798828125,-0.320434570312
1534599389.391.44195556641,0.595092773438,-0.3662109375
1534599389.391.55639648438,0.625610351562,-0.495910644531
1534599389.391.53350830078,0.54931640625,-0.701904296875
1534599389.391.57165527344,0.495910644531,-0.823974609375
1534599389.391.57165527344,0.663757324219,-0.846862792969
1534599389.391.5869140625,0.816345214844,-0.862121582031
1534599389.391.48010253906,0.869750976562,-0.968933105469
1534599389.391.38092041016,0.862121582031,-0.839233398438
1534599389.41.27410888672,0.778198242188,-0.724792480469
1534599389.41.220703125,0.648498535156,-0.701904296875
1534599389.41.26647949219,0.602722167969,-0.656127929688
1534599389.41.63269042969,0.663757324219,-0.602722167969
1534599389.41.71661376953,0.686645507812,-0.640869140625
1534599389.41.72424316406,0.801086425781,-0.656127929688
1534599389.41.68609619141,0.823974609375,-0.701904296875
1534599389.41.62506103516,0.816345214844,-0.724792480469
1534599389.41.60980224609,0.79345703125,-0.785827636719
1534599389.41.5869140625,0.740051269531,-0.823974609375
1534599389.41.44195556641,0.724792480469,-0.808715820312
1534599389.41.40380859375,0.755310058594,-0.907897949219
1534599389.41.48010253906,0.724792480469,-1.04522705078
1534599389.41.56402587891,0.709533691406,-1.09100341797
1534599389.41.62506103516,0.679016113281,-1.06048583984
1534599389.41.68609619141,0.663757324219,-0.953674316406
1534599389.41.78527832031,0.747680664062,-0.709533691406
1534599389.411.81579589844,0.709533691406,-0.556945800781
1534599389.411.708984375,0.625610351562,-0.503540039062
1534599389.411.60217285156,0.679016113281,-0.473022460938
1534599389.411.37329101562,0.686645507812,-0.534057617188
1534599389.411.27410888672,0.732421875,-0.602722167969
1534599389.411.39617919922,0.79345703125,-0.709533691406
1534599389.411.49536132812,0.839233398438,-0.755310058594
1534599389.411.57928466797,0.801086425781,-0.656127929688
1534599389.411.50299072266,0.762939453125,-0.579833984375
1534599389.411.38092041016,0.724792480469,-0.587463378906
1534599389.411.37329101562,0.625610351562,-0.541687011719
1534599389.411.45721435547,0.572204589844,-0.541687011719
1534599389.411.57165527344,0.556945800781,-0.511169433594
1534599389.411.5869140625,0.556945800781,-0.465393066406
1534599389.411.48010253906,0.602722167969,-0.411987304688
1534599389.411.38092041016,0.640869140625,-0.3662109375
1534599389.411.38854980469,0.656127929688,-0.419616699219
1534599389.411.43432617188,0.617980957031,-0.389099121094
1534599389.411.59454345703,0.511169433594,-0.30517578125
1534599389.411.72424316406,0.465393066406,-0.30517578125
1534599389.421.80053710938,0.495910644531,-0.328063964844
1534599389.421.61743164062,0.625610351562,-0.221252441406
1534599389.421.53350830078,0.640869140625,-0.1220703125
1534599389.421.42669677734,0.556945800781,-0.152587890625
1534599389.421.52587890625,0.442504882812,-0.198364257812
1534599389.421.54876708984,0.350952148438,-0.350952148438
1534599389.421.60217285156,0.343322753906,-0.404357910156
1534599389.421.71661376953,0.389099121094,-0.373840332031
1534599389.421.86920166016,0.434875488281,-0.328063964844
1534599389.421.84631347656,0.442504882812,-0.267028808594
1534599389.421.77001953125,0.503540039062,-0.236511230469
1534599389.421.65557861328,0.587463378906,-0.152587890625
1534599389.421.52587890625,0.617980957031,-0.0762939453125
1534599389.421.42669677734,0.564575195312,-0.137329101562
1534599389.421.38092041016,0.518798828125,-0.198364257812
1534599389.421.35040283203,0.350952148438,-0.18310546875
1534599389.421.39617919922,0.30517578125,-0.0762939453125
1534599389.421.53350830078,0.328063964844,-0.0381469726562
1534599389.421.61743164062,0.320434570312,-0.152587890625
1534599389.431.64031982422,0.328063964844,-0.251770019531
1534599389.431.55639648438,0.526428222656,-0.297546386719
1534599389.431.47247314453,0.656127929688,-0.343322753906
1534599389.431.44195556641,0.556945800781,-0.404357910156
1534599389.431.42669677734,0.450134277344,-0.42724609375
1534599389.431.46484375,0.297546386719,-0.320434570312
1534599389.431.45721435547,0.129699707031,-0.213623046875
1534599389.431.44195556641,0.190734863281,-0.18310546875
1534599389.431.41906738281,0.350952148438,-0.228881835938
1534599389.431.43432617188,0.54931640625,-0.30517578125
1534599389.431.49536132812,0.541687011719,-0.350952148438
1534599389.431.60980224609,0.534057617188,-0.320434570312
1534599389.431.60980224609,0.556945800781,-0.274658203125
1534599389.431.56402587891,0.541687011719,-0.205993652344
1534599389.431.55639648438,0.503540039062,-0.137329101562
1534599389.431.47247314453,0.480651855469,-0.114440917969
1534599389.431.47247314453,0.473022460938,-0.091552734375
1534599389.431.53350830078,0.564575195312,-0.144958496094
1534599389.431.5869140625,0.633239746094,-0.205993652344
1534599389.441.65557861328,0.663757324219,-0.259399414062
1534599389.441.57165527344,0.495910644531,-0.259399414062
1534599389.441.51824951172,0.434875488281,-0.312805175781
1534599389.441.51062011719,0.465393066406,-0.312805175781
1534599389.441.49536132812,0.450134277344,-0.434875488281
1534599389.441.51824951172,0.518798828125,-0.534057617188
1534599389.441.48010253906,0.640869140625,-0.564575195312
1534599389.441.47247314453,0.648498535156,-0.595092773438
1534599389.441.56402587891,0.656127929688,-0.526428222656
1534599389.441.61743164062,0.656127929688,-0.404357910156
1534599389.441.60217285156,0.762939453125,-0.42724609375
1534599389.441.5869140625,0.762939453125,-0.411987304688
1534599389.441.51824951172,0.770568847656,-0.465393066406
1534599389.441.47247314453,0.656127929688,-0.556945800781
1534599389.441.47247314453,0.595092773438,-0.656127929688
1534599389.441.53350830078,0.526428222656,-0.755310058594
1534599389.441.55639648438,0.518798828125,-0.770568847656
1534599389.441.50299072266,0.48828125,-0.747680664062
1534599389.441.46484375,0.350952148438,-0.656127929688
1534599389.441.47247314453,0.282287597656,-0.534057617188
1534599389.451.49536132812,0.328063964844,-0.556945800781
1534599389.451.53350830078,0.503540039062,-0.602722167969
1534599389.451.59454345703,0.762939453125,-0.518798828125
1534599389.451.53350830078,0.984191894531,-0.442504882812
1534599389.451.51824951172,1.04522705078,-0.434875488281
1534599389.451.62506103516,1.02996826172,-0.473022460938
1534599389.451.77764892578,0.923156738281,-0.564575195312
1534599389.451.86157226562,0.770568847656,-0.6103515625
1534599389.451.84631347656,0.679016113281,-0.679016113281
1534599389.451.67846679688,0.534057617188,-0.740051269531
1534599389.451.52587890625,0.381469726562,-0.762939453125
1534599389.451.33514404297,0.389099121094,-0.816345214844
1534599389.451.28936767578,0.381469726562,-0.747680664062
1534599389.451.33514404297,0.396728515625,-0.747680664062
1534599389.451.40380859375,0.556945800781,-0.762939453125
1534599389.451.48773193359,0.67138671875,-0.816345214844
1534599389.451.44195556641,0.717163085938,-0.816345214844
1534599389.451.41143798828,0.663757324219,-0.686645507812
1534599389.451.45721435547,0.67138671875,-0.663757324219
1534599389.451.55639648438,0.79345703125,-0.701904296875
1534599389.461.54876708984,0.846862792969,-0.747680664062
1534599389.461.52587890625,0.808715820312,-0.732421875
1534599389.461.48773193359,0.633239746094,-0.640869140625
1534599389.461.40380859375,0.495910644531,-0.67138671875
1534599389.461.45721435547,0.404357910156,-0.709533691406
1534599389.461.59454345703,0.518798828125,-0.663757324219
1534599389.461.63269042969,0.572204589844,-0.640869140625
1534599389.461.63269042969,0.663757324219,-0.686645507812
1534599389.461.57165527344,0.762939453125,-0.679016113281
1534599389.461.61743164062,0.801086425781,-0.541687011719
1534599389.461.77001953125,0.778198242188,-0.518798828125
1534599389.461.91497802734,0.648498535156,-0.48828125
1534599389.461.99890136719,0.518798828125,-0.450134277344
1534599389.461.98364257812,0.457763671875,-0.42724609375
1534599389.461.86157226562,0.526428222656,-0.48828125
1534599389.461.71661376953,0.648498535156,-0.480651855469
1534599389.461.5869140625,0.785827636719,-0.503540039062
1534599389.461.43432617188,0.877380371094,-0.473022460938
1534599389.461.28936767578,0.831604003906,-0.396728515625
1534599389.461.23596191406,0.724792480469,-0.411987304688
1534599389.471.30462646484,0.564575195312,-0.434875488281
1534599389.471.49536132812,0.503540039062,-0.450134277344
1534599389.471.57928466797,0.518798828125,-0.434875488281
1534599389.471.60217285156,0.54931640625,-0.335693359375
1534599389.471.64794921875,0.625610351562,-0.205993652344
1534599389.471.64794921875,0.625610351562,-0.213623046875
1534599389.471.51824951172,0.587463378906,-0.251770019531
1534599389.471.47247314453,0.54931640625,-0.411987304688
1534599389.471.5869140625,0.3662109375,-0.42724609375
1534599389.471.64031982422,0.343322753906,-0.373840332031
1534599389.471.67846679688,0.465393066406,-0.297546386719
1534599389.471.66320800781,0.595092773438,-0.381469726562
1534599389.471.60217285156,0.640869140625,-0.404357910156
1534599389.471.51062011719,0.587463378906,-0.373840332031
1534599389.471.48010253906,0.411987304688,-0.30517578125
1534599389.471.54113769531,0.30517578125,-0.236511230469
1534599389.471.57928466797,0.320434570312,-0.343322753906
1534599389.471.60980224609,0.434875488281,-0.3662109375
1534599389.471.52587890625,0.579833984375,-0.411987304688
1534599389.481.40380859375,0.6103515625,-0.457763671875
1534599389.481.40380859375,0.526428222656,-0.480651855469
1534599389.481.48773193359,0.404357910156,-0.358581542969
1534599389.481.47247314453,0.312805175781,-0.274658203125
1534599389.481.42669677734,0.350952148438,-0.282287597656
1534599389.481.55639648438,0.411987304688,-0.274658203125
1534599389.481.74713134766,0.564575195312,-0.259399414062
1534599389.481.87683105469,0.679016113281,-0.160217285156
1534599389.481.8310546875,0.6103515625,-0.106811523438
1534599389.481.66320800781,0.579833984375,-0.0686645507812
1534599389.481.47247314453,0.579833984375,-0.091552734375
1534599389.481.41143798828,0.564575195312,-0.160217285156
1534599389.481.31988525391,0.518798828125,-0.244140625
1534599389.481.22833251953,0.473022460938,-0.274658203125
1534599389.481.220703125,0.442504882812,-0.289916992188
1534599389.481.33514404297,0.411987304688,-0.274658203125
1534599389.481.42669677734,0.434875488281,-0.244140625
1534599389.481.56402587891,0.480651855469,-0.274658203125
1534599389.481.67846679688,0.457763671875,-0.236511230469
1534599389.481.69372558594,0.503540039062,-0.30517578125
1534599389.491.67846679688,0.564575195312,-0.419616699219
1534599389.491.60217285156,0.648498535156,-0.48828125
1534599389.491.55639648438,0.694274902344,-0.48828125
1534599389.491.57928466797,0.762939453125,-0.511169433594
1534599389.491.55639648438,0.67138671875,-0.42724609375
1534599389.491.54113769531,0.572204589844,-0.373840332031
1534599389.491.54876708984,0.48828125,-0.274658203125
1534599389.491.49536132812,0.404357910156,-0.251770019531
1534599389.491.47247314453,0.320434570312,-0.267028808594
1534599389.491.48773193359,0.205993652344,-0.221252441406
1534599389.51.55639648438,0.152587890625,-0.259399414062
1534599389.51.28173828125,0.556945800781,-0.175476074219
1534599389.51.50299072266,0.564575195312,-0.274658203125
1534599389.51.62506103516,0.511169433594,-0.312805175781
1534599389.51.51062011719,0.465393066406,-0.457763671875
1534599389.51.55639648438,0.312805175781,-0.373840332031
1534599389.51.54113769531,0.457763671875,-0.328063964844
1534599389.51.50299072266,0.640869140625,-0.389099121094
1534599389.51.45721435547,0.740051269531,-0.564575195312
1534599389.511.48773193359,0.587463378906,-0.518798828125
1534599389.511.55639648438,0.442504882812,-0.480651855469
1534599389.511.52587890625,0.404357910156,-0.556945800781
1534599389.511.57165527344,0.396728515625,-0.54931640625
1534599389.511.57165527344,0.465393066406,-0.48828125
1534599389.511.49536132812,0.6103515625,-0.411987304688
1534599389.511.33514404297,0.747680664062,-0.404357910156
1534599389.511.28936767578,0.541687011719,-0.457763671875
1534599389.521.35803222656,0.358581542969,-0.358581542969
1534599389.521.73187255859,0.572204589844,-0.602722167969
1534599389.521.48773193359,0.587463378906,-0.54931640625
1534599389.521.39617919922,0.602722167969,-0.526428222656
1534599389.521.31988525391,0.617980957031,-0.541687011719
1534599389.521.3427734375,0.656127929688,-0.717163085938
1534599389.521.38092041016,0.79345703125,-0.755310058594
1534599389.521.46484375,0.831604003906,-0.717163085938
1534599389.521.59454345703,0.816345214844,-0.572204589844
1534599389.521.72424316406,0.762939453125,-0.503540039062
1534599389.521.73950195312,0.6103515625,-0.48828125
1534599389.521.67846679688,0.572204589844,-0.48828125
1534599389.521.70135498047,0.602722167969,-0.473022460938
1534599389.521.56402587891,0.511169433594,-0.518798828125
1534599389.521.47247314453,0.572204589844,-0.511169433594
1534599389.531.50299072266,0.717163085938,-0.42724609375
1534599389.531.48010253906,0.762939453125,-0.442504882812
1534599389.531.67083740234,0.648498535156,-0.465393066406
1534599389.531.67846679688,0.717163085938,-0.518798828125
1534599389.531.71661376953,0.717163085938,-0.54931640625
1534599389.531.74713134766,0.640869140625,-0.526428222656
1534599389.531.708984375,0.457763671875,-0.381469726562
1534599389.531.65557861328,0.259399414062,-0.518798828125
1534599389.531.62506103516,0.328063964844,-0.617980957031
1534599389.531.67846679688,0.511169433594,-0.648498535156
1534599389.541.63269042969,0.579833984375,-0.663757324219
1534599389.541.60217285156,0.633239746094,-0.717163085938
1534599389.541.52587890625,0.656127929688,-0.518798828125
1534599389.541.45721435547,0.625610351562,-0.274658203125
1534599389.541.48773193359,0.663757324219,-0.0991821289062
1534599389.541.60980224609,0.556945800781,-0.129699707031
1534599389.541.41143798828,0.251770019531,-0.18310546875
1534599389.541.49536132812,0.389099121094,-0.144958496094
1534599389.541.65557861328,0.564575195312,-0.160217285156
1534599389.541.62506103516,0.755310058594,-0.236511230469
1534599389.541.55639648438,0.91552734375,-0.297546386719
1534599389.551.51824951172,0.991821289062,-0.274658203125
1534599389.551.54113769531,0.801086425781,-0.335693359375
1534599389.551.63269042969,0.595092773438,-0.396728515625
1534599389.551.59454345703,0.457763671875,-0.411987304688
1534599389.551.59454345703,0.30517578125,-0.396728515625
1534599389.551.63269042969,0.251770019531,-0.289916992188
1534599389.551.48773193359,0.274658203125,-0.267028808594
1534599389.551.33514404297,0.511169433594,-0.190734863281
1534599389.551.39617919922,0.587463378906,-0.137329101562
1534599389.551.44958496094,0.709533691406,-0.137329101562
1534599389.551.45721435547,0.801086425781,-0.0839233398438
1534599389.551.45721435547,0.732421875,-0.0457763671875
1534599389.551.48010253906,0.663757324219,-0.06103515625
1534599389.551.52587890625,0.602722167969,-0.160217285156
1534599389.551.48010253906,0.518798828125,-0.289916992188
1534599389.551.60980224609,0.411987304688,-0.320434570312
1534599389.551.69372558594,0.343322753906,-0.297546386719
1534599389.551.75476074219,0.312805175781,-0.312805175781
1534599389.561.67083740234,0.396728515625,-0.389099121094
1534599389.561.48010253906,0.289916992188,-0.511169433594
1534599389.561.38854980469,0.30517578125,-0.480651855469
1534599389.561.44958496094,0.503540039062,-0.328063964844
1534599389.561.54113769531,0.648498535156,-0.282287597656
1534599389.561.57165527344,0.434875488281,-0.190734863281
1534599389.561.53350830078,0.404357910156,-0.297546386719
1534599389.561.48010253906,0.457763671875,-0.373840332031
1534599389.561.36566162109,0.450134277344,-0.396728515625
1534599389.561.35803222656,0.503540039062,-0.457763671875
1534599389.561.64794921875,0.564575195312,-0.564575195312
1534599389.561.708984375,0.633239746094,-0.587463378906
1534599389.561.53350830078,0.770568847656,-0.480651855469
1534599389.571.39617919922,0.8544921875,-0.289916992188
1534599389.571.42669677734,0.595092773438,-0.411987304688
1534599389.571.57928466797,0.694274902344,-0.381469726562
1534599389.571.94549560547,0.6103515625,-0.518798828125
1534599389.571.89208984375,0.564575195312,-0.54931640625
1534599389.571.77764892578,0.572204589844,-0.556945800781
1534599389.571.60217285156,0.67138671875,-0.648498535156
1534599389.571.39617919922,0.732421875,-0.686645507812
1534599389.571.36566162109,0.79345703125,-0.755310058594
1534599389.571.31988525391,0.778198242188,-0.79345703125
1534599389.571.28173828125,0.755310058594,-0.762939453125
1534599389.571.40380859375,0.717163085938,-0.686645507812
1534599389.571.65557861328,0.694274902344,-0.595092773438
1534599389.571.73950195312,0.679016113281,-0.54931640625
1534599389.571.73187255859,0.808715820312,-0.572204589844
1534599389.581.70135498047,0.923156738281,-0.656127929688
1534599389.581.63269042969,0.801086425781,-0.679016113281
1534599389.581.56402587891,0.724792480469,-0.595092773438
1534599389.581.51824951172,0.579833984375,-0.572204589844
1534599389.581.48010253906,0.335693359375,-0.663757324219
1534599389.581.40380859375,0.205993652344,-0.762939453125
1534599389.581.33514404297,0.534057617188,-0.709533691406
1534599389.581.42669677734,0.862121582031,-0.717163085938
1534599389.581.59454345703,1.02233886719,-0.747680664062
1534599389.581.67846679688,1.06811523438,-0.740051269531
1534599389.581.77764892578,0.991821289062,-0.633239746094
1534599389.581.85394287109,0.839233398438,-0.648498535156
1534599389.581.81579589844,0.709533691406,-0.694274902344
1534599389.581.71661376953,0.663757324219,-0.732421875
1534599389.581.65557861328,0.648498535156,-0.785827636719
1534599389.581.66320800781,0.67138671875,-0.694274902344
1534599389.581.60217285156,0.595092773438,-0.572204589844
1534599389.581.49536132812,0.541687011719,-0.541687011719
1534599389.591.44958496094,0.534057617188,-0.511169433594
1534599389.591.40380859375,0.572204589844,-0.511169433594
1534599389.591.36566162109,0.679016113281,-0.54931640625
1534599389.591.41143798828,0.709533691406,-0.526428222656
1534599389.591.54113769531,0.617980957031,-0.48828125
1534599389.591.61743164062,0.518798828125,-0.434875488281
1534599389.591.63269042969,0.526428222656,-0.442504882812
1534599389.591.67846679688,0.602722167969,-0.465393066406
1534599389.591.60217285156,0.6103515625,-0.473022460938
1534599389.591.56402587891,0.602722167969,-0.358581542969
1534599389.591.60217285156,0.572204589844,-0.18310546875
1534599389.591.64794921875,0.572204589844,-0.160217285156
1534599389.591.62506103516,0.579833984375,-0.228881835938
1534599389.591.5869140625,0.595092773438,-0.297546386719
1534599389.591.53350830078,0.602722167969,-0.320434570312
1534599389.591.52587890625,0.679016113281,-0.297546386719
1534599389.591.62506103516,0.656127929688,-0.373840332031
1534599389.591.60217285156,0.6103515625,-0.289916992188
1534599389.591.60980224609,0.572204589844,-0.221252441406
1534599389.591.66320800781,0.54931640625,-0.274658203125
1534599389.61.77001953125,0.579833984375,-0.358581542969
1534599389.61.82342529297,0.663757324219,-0.3662109375
1534599389.61.76239013672,0.663757324219,-0.267028808594
1534599389.61.66320800781,0.633239746094,-0.160217285156
1534599389.61.48010253906,0.625610351562,-0.167846679688
1534599389.61.32751464844,0.648498535156,-0.167846679688
1534599389.61.36566162109,0.648498535156,-0.1220703125
1534599389.61.51824951172,0.625610351562,-0.175476074219
1534599389.61.60217285156,0.457763671875,-0.18310546875
1534599389.61.62506103516,0.434875488281,-0.160217285156
1534599389.61.67083740234,0.564575195312,-0.129699707031
1534599389.61.64031982422,0.541687011719,-0.0991821289062
1534599389.61.57928466797,0.350952148438,-0.175476074219
1534599389.61.47247314453,0.228881835938,-0.244140625
1534599389.61.37329101562,0.160217285156,-0.190734863281
1534599389.61.30462646484,0.18310546875,-0.0762939453125
1534599389.61.30462646484,0.282287597656,0.0381469726562
1534599389.61.38092041016,0.381469726562,0.091552734375
1534599389.61.48010253906,0.373840332031,0.0686645507812
1534599389.61.54876708984,0.381469726562,0.0228881835938
1534599389.611.50299072266,0.389099121094,-0.030517578125
1534599389.611.35803222656,0.419616699219,-0.160217285156
1534599389.611.38854980469,0.480651855469,-0.205993652344
1534599389.611.41143798828,0.762939453125,-0.18310546875
1534599389.611.35803222656,0.709533691406,-0.00762939453125
1534599389.611.35040283203,0.572204589844,0.06103515625
1534599389.611.41906738281,0.480651855469,0.0228881835938
1534599389.611.51062011719,0.473022460938,-0.114440917969
1534599389.611.48773193359,0.457763671875,-0.106811523438
1534599389.611.44195556641,0.457763671875,-0.00762939453125
1534599389.611.40380859375,0.442504882812,0.0
1534599389.611.32751464844,0.419616699219,0.0457763671875
1534599389.611.31988525391,0.328063964844,0.0381469726562
1534599389.611.31225585938,0.30517578125,-0.175476074219
1534599389.611.31225585938,0.350952148438,-0.259399414062
1534599389.611.38854980469,0.442504882812,-0.381469726562
1534599389.611.45721435547,0.411987304688,-0.328063964844
1534599389.611.50299072266,0.259399414062,-0.213623046875
1534599389.611.48773193359,0.160217285156,-0.167846679688
1534599389.621.55639648438,0.198364257812,-0.267028808594
1534599389.621.54876708984,0.350952148438,-0.457763671875
1534599389.621.48773193359,0.396728515625,-0.511169433594
1534599389.621.51824951172,0.518798828125,-0.556945800781
1534599389.621.56402587891,0.54931640625,-0.48828125
1534599389.621.57165527344,0.564575195312,-0.381469726562
1534599389.621.51062011719,0.480651855469,-0.396728515625
1534599389.621.40380859375,0.419616699219,-0.396728515625
1534599389.621.35803222656,0.442504882812,-0.350952148438
1534599389.621.41143798828,0.450134277344,-0.289916992188
1534599389.621.45721435547,0.450134277344,-0.373840332031
1534599389.621.56402587891,0.350952148438,-0.457763671875
1534599389.621.68609619141,0.251770019531,-0.503540039062
1534599389.621.79290771484,0.205993652344,-0.541687011719
1534599389.621.80053710938,0.251770019531,-0.54931640625
1534599389.621.67846679688,0.434875488281,-0.541687011719
1534599389.621.57165527344,0.694274902344,-0.595092773438
1534599389.621.49536132812,0.846862792969,-0.679016113281
1534599389.621.43432617188,0.816345214844,-0.724792480469
1534599389.631.53350830078,0.602722167969,-0.801086425781
1534599389.631.52587890625,0.495910644531,-0.79345703125
1534599389.631.41906738281,0.419616699219,-0.694274902344
1534599389.631.36566162109,0.473022460938,-0.640869140625
1534599389.631.3427734375,0.602722167969,-0.595092773438
1534599389.631.38092041016,0.67138671875,-0.54931640625
1534599389.631.51062011719,0.778198242188,-0.503540039062
1534599389.631.65557861328,0.823974609375,-0.42724609375
1534599389.631.73187255859,0.755310058594,-0.411987304688
1534599389.631.708984375,0.694274902344,-0.396728515625
1534599389.631.60217285156,0.648498535156,-0.457763671875
1534599389.631.45721435547,0.602722167969,-0.602722167969
1534599389.631.35803222656,0.686645507812,-0.785827636719
1534599389.631.32751464844,0.785827636719,-0.930786132812
1534599389.631.3427734375,0.839233398438,-0.907897949219
1534599389.631.38092041016,0.778198242188,-0.801086425781
1534599389.631.45721435547,0.633239746094,-0.701904296875
1534599389.631.54876708984,0.556945800781,-0.656127929688
1534599389.631.59454345703,0.526428222656,-0.633239746094
1534599389.631.61743164062,0.48828125,-0.625610351562
1534599389.641.51062011719,0.572204589844,-0.556945800781
1534599389.641.45721435547,0.717163085938,-0.396728515625
1534599389.641.51824951172,0.831604003906,-0.251770019531
1534599389.641.67846679688,0.946044921875,-0.198364257812
1534599389.641.71661376953,0.961303710938,-0.236511230469
1534599389.641.71661376953,0.9765625,-0.282287597656
1534599389.641.68609619141,0.8544921875,-0.358581542969
1534599389.641.61743164062,0.663757324219,-0.473022460938
1534599389.641.53350830078,0.587463378906,-0.54931640625
1534599389.641.41143798828,0.595092773438,-0.679016113281
1534599389.641.36566162109,0.595092773438,-0.732421875
1534599389.641.35040283203,0.556945800781,-0.732421875
1534599389.641.38854980469,0.48828125,-0.770568847656
1534599389.641.46484375,0.54931640625,-0.67138671875
1534599389.641.49536132812,0.54931640625,-0.564575195312
1534599389.641.48010253906,0.480651855469,-0.457763671875
1534599389.641.46484375,0.442504882812,-0.42724609375
1534599389.641.49536132812,0.434875488281,-0.572204589844
1534599389.641.45721435547,0.511169433594,-0.6103515625
1534599389.641.39617919922,0.595092773438,-0.640869140625
1534599389.651.37329101562,0.54931640625,-0.656127929688
1534599389.651.43432617188,0.450134277344,-0.587463378906
1534599389.651.44195556641,0.42724609375,-0.617980957031
1534599389.651.40380859375,0.404357910156,-0.640869140625
1534599389.651.39617919922,0.411987304688,-0.587463378906
1534599389.651.38092041016,0.434875488281,-0.54931640625
1534599389.651.44958496094,0.457763671875,-0.541687011719
1534599389.661.5869140625,0.617980957031,-0.0686645507812
1534599389.661.64031982422,0.3662109375,-0.495910644531
1534599389.661.66320800781,0.343322753906,-0.350952148438
1534599389.661.57165527344,0.457763671875,-0.205993652344
1534599389.661.64031982422,0.495910644531,-0.267028808594
1534599389.661.60980224609,0.503540039062,-0.328063964844
1534599389.661.38092041016,0.442504882812,-0.450134277344
1534599389.661.38092041016,0.3662109375,-0.473022460938
1534599389.671.60217285156,0.442504882812,-0.450134277344
1534599389.671.41906738281,0.67138671875,-0.259399414062
1534599389.671.5869140625,0.663757324219,-0.236511230469
1534599389.671.54113769531,0.457763671875,-0.343322753906
1534599389.671.59454345703,0.434875488281,-0.335693359375
1534599389.671.72424316406,0.511169433594,-0.289916992188
1534599389.671.69372558594,0.595092773438,-0.312805175781
1534599389.671.61743164062,0.556945800781,-0.381469726562
1534599389.671.54113769531,0.518798828125,-0.419616699219
1534599389.671.41143798828,0.54931640625,-0.442504882812
1534599389.671.35040283203,0.587463378906,-0.48828125
1534599389.671.44958496094,0.663757324219,-0.526428222656
1534599389.681.55639648438,0.762939453125,-0.6103515625
1534599389.681.48010253906,0.717163085938,-0.30517578125
1534599389.681.38854980469,0.526428222656,-0.289916992188
1534599389.681.47247314453,0.663757324219,-0.251770019531
1534599389.681.52587890625,0.839233398438,-0.411987304688
1534599389.681.44195556641,0.724792480469,-0.587463378906
