CSV format: Accelerometer x value, acclerometer y value, accelerometer z value, gyroscope x value, gyroscope y value, gyroscope z value
Sample frequency: 100Hz
1534601357.090.97216796875,-0.31640625,0.106689453125,1.71661376953,0.663757324219,-0.205993652344
1534601357.10.969970703125,-0.312255859375,0.107177734375,1.41143798828,0.3662109375,-0.190734863281
1534601357.10.969482421875,-0.311767578125,0.1015625,1.66320800781,0.556945800781,-0.411987304688
1534601357.110.9736328125,-0.315185546875,0.104248046875,1.45721435547,0.381469726562,-0.251770019531
1534601357.110.969482421875,-0.315185546875,0.099365234375,1.48010253906,0.572204589844,-0.450134277344
1534601357.110.969482421875,-0.31640625,0.1025390625,1.41906738281,0.900268554688,-0.67138671875
1534601357.120.968505859375,-0.3134765625,0.101806640625,1.708984375,0.732421875,-0.686645507812
1534601357.120.969482421875,-0.317138671875,0.10009765625,1.80816650391,0.778198242188,-0.617980957031
1534601357.120.970703125,-0.3125,0.103759765625,1.54113769531,0.587463378906,-0.526428222656
1534601357.130.96728515625,-0.31591796875,0.099365234375,1.83868408203,0.846862792969,-0.579833984375
1534601357.130.97216796875,-0.312255859375,0.099853515625,1.5869140625,0.556945800781,-0.457763671875
1534601357.130.967529296875,-0.3125,0.102783203125,1.44958496094,0.839233398438,-0.274658203125
1534601357.140.968505859375,-0.314453125,0.096923828125,1.54113769531,0.389099121094,-0.213623046875
1534601357.150.97119140625,-0.3134765625,0.11181640625,1.60980224609,0.411987304688,-0.18310546875
1534601357.150.971923828125,-0.318603515625,0.102783203125,1.62506103516,0.534057617188,-0.228881835938
1534601357.160.96826171875,-0.313720703125,0.098388671875,1.49536132812,0.923156738281,-0.205993652344
1534601357.160.9697265625,-0.316650390625,0.103759765625,1.57165527344,0.556945800781,-0.335693359375
1534601357.160.970947265625,-0.31640625,0.100341796875,1.48010253906,0.579833984375,-0.709533691406
1534601357.170.970947265625,-0.3134765625,0.09912109375,1.37329101562,0.640869140625,-0.205993652344
1534601357.170.969970703125,-0.314208984375,0.099609375,1.49536132812,0.617980957031,-0.3662109375
1534601357.170.9697265625,-0.315185546875,0.099609375,1.64794921875,0.686645507812,-0.457763671875
1534601357.170.970947265625,-0.31298828125,0.099365234375,1.57928466797,0.373840332031,-0.526428222656
1534601357.180.969482421875,-0.317138671875,0.106689453125,1.63269042969,0.770568847656,-0.572204589844
1534601357.180.9697265625,-0.317138671875,0.096435546875,1.51824951172,0.762939453125,-0.648498535156
1534601357.180.970458984375,-0.319580078125,0.09912109375,1.49536132812,0.679016113281,-0.541687011719
1534601357.190.970703125,-0.314208984375,0.10107421875,1.62506103516,0.762939453125,-0.48828125
1534601357.190.968017578125,-0.313232421875,0.104248046875,1.55639648438,0.648498535156,-0.717163085938
1534601357.190.970947265625,-0.31689453125,0.1044921875,1.74713134766,0.396728515625,-0.320434570312
1534601357.20.966552734375,-0.31396484375,0.1005859375,1.59454345703,0.679016113281,-0.297546386719
1534601357.20.968017578125,-0.315673828125,0.1015625,1.39617919922,0.534057617188,-0.572204589844
1534601357.20.967529296875,-0.31640625,0.099853515625,1.69372558594,0.274658203125,-0.190734863281
1534601357.210.969482421875,-0.308349609375,0.104736328125,1.57928466797,0.335693359375,-0.350952148438
1534601357.210.970458984375,-0.31689453125,0.099853515625,1.52587890625,0.175476074219,-0.297546386719
1534601357.210.96875,-0.315185546875,0.100341796875,1.708984375,0.694274902344,-0.274658203125
1534601357.220.970703125,-0.31494140625,0.101806640625,1.63269042969,0.244140625,-0.473022460938
1534601357.220.971435546875,-0.31640625,0.101318359375,1.72424316406,0.701904296875,-0.0839233398438
1534601357.220.967529296875,-0.312744140625,0.110595703125,1.54876708984,0.732421875,-0.320434570312
1534601357.220.970703125,-0.317626953125,0.1015625,1.69372558594,0.6103515625,-0.709533691406
1534601357.230.970947265625,-0.313720703125,0.09814453125,1.77001953125,0.709533691406,-0.617980957031
1534601357.230.9697265625,-0.31787109375,0.103271484375,1.57165527344,0.572204589844,-0.556945800781
1534601357.230.9697265625,-0.314697265625,0.10205078125,1.43432617188,0.694274902344,-0.572204589844
1534601357.230.969482421875,-0.314208984375,0.103515625,1.77001953125,0.877380371094,-0.579833984375
1534601357.240.9697265625,-0.31591796875,0.10009765625,1.3427734375,0.587463378906,-0.534057617188
1534601357.240.969482421875,-0.314697265625,0.10205078125,1.65557861328,0.572204589844,-0.282287597656
1534601357.240.97216796875,-0.317138671875,0.096923828125,1.53350830078,0.572204589844,-0.3662109375
1534601357.250.967041015625,-0.31689453125,0.103759765625,1.54876708984,0.450134277344,-0.320434570312
1534601357.250.972412109375,-0.31396484375,0.103759765625,1.56402587891,0.328063964844,-0.0762939453125
1534601357.260.96826171875,-0.31640625,0.10107421875,1.54876708984,0.686645507812,-0.350952148438
1534601357.260.9697265625,-0.308837890625,0.10107421875,1.42669677734,0.42724609375,-0.320434570312
1534601357.260.96826171875,-0.318115234375,0.101806640625,1.82342529297,0.480651855469,-0.129699707031
1534601357.270.96923828125,-0.314453125,0.10205078125,1.57165527344,0.694274902344,-0.274658203125
1534601357.270.9658203125,-0.317138671875,0.10107421875,1.59454345703,0.602722167969,-0.3662109375
1534601357.270.969970703125,-0.318359375,0.101806640625,1.57165527344,0.495910644531,-0.556945800781
1534601357.280.967529296875,-0.318603515625,0.10009765625,1.60980224609,0.6103515625,-0.587463378906
1534601357.280.97119140625,-0.318603515625,0.1015625,1.41143798828,0.259399414062,-0.434875488281
1534601357.280.968994140625,-0.322265625,0.101806640625,1.50299072266,0.541687011719,-0.450134277344
1534601357.290.96728515625,-0.3193359375,0.094970703125,1.57928466797,0.831604003906,-0.106811523438
1534601357.30.96435546875,-0.32177734375,0.09619140625,1.43432617188,0.419616699219,-0.152587890625
1534601357.30.96728515625,-0.315673828125,0.09765625,1.54113769531,0.8544921875,-0.320434570312
1534601357.30.962646484375,-0.31591796875,0.101806640625,1.79290771484,0.602722167969,-0.289916992188
1534601357.30.96630859375,-0.31884765625,0.10009765625,1.53350830078,0.801086425781,-0.801086425781
1534601357.310.969970703125,-0.314208984375,0.097900390625,1.77001953125,0.923156738281,-0.785827636719
1534601357.310.968505859375,-0.31103515625,0.102294921875,1.78527832031,0.862121582031,-0.862121582031
1534601357.310.9716796875,-0.305908203125,0.104248046875,1.74713134766,1.17492675781,-1.16729736328
1534601357.320.968994140625,-0.309326171875,0.103515625,1.49536132812,0.778198242188,-1.57165527344
1534601357.320.968994140625,-0.30859375,0.108154296875,1.37329101562,0.648498535156,-1.66320800781
1534601357.320.9697265625,-0.306884765625,0.10400390625,1.67846679688,0.640869140625,-1.77001953125
1534601357.320.9765625,-0.305419921875,0.107421875,1.53350830078,0.701904296875,-1.97601318359
1534601357.330.978515625,-0.3056640625,0.10498046875,1.5869140625,1.10626220703,-1.78527832031
1534601357.330.973876953125,-0.304443359375,0.10400390625,1.51824951172,1.01470947266,-1.27410888672
1534601357.330.97412109375,-0.304443359375,0.109619140625,1.85394287109,0.953674316406,-1.02996826172
1534601357.340.970703125,-0.30419921875,0.110107421875,1.46484375,0.816345214844,-0.579833984375
1534601357.340.973876953125,-0.308837890625,0.10888671875,1.77001953125,0.442504882812,-0.0762939453125
1534601357.340.974365234375,-0.309326171875,0.1083984375,1.57928466797,0.198364257812,0.267028808594
1534601357.350.970947265625,-0.309814453125,0.107421875,1.48010253906,0.030517578125,0.701904296875
1534601357.350.968505859375,-0.30859375,0.10595703125,1.38092041016,-0.167846679688,0.907897949219
1534601357.350.970947265625,-0.310302734375,0.107666015625,1.44958496094,0.106811523438,0.602722167969
1534601357.360.975341796875,-0.309814453125,0.10400390625,1.46484375,0.297546386719,0.434875488281
1534601357.360.974853515625,-0.314453125,0.1015625,1.48010253906,0.411987304688,0.717163085938
1534601357.360.969482421875,-0.315185546875,0.106201171875,1.64794921875,0.633239746094,0.640869140625
1534601357.370.96435546875,-0.31787109375,0.10888671875,1.63269042969,0.503540039062,0.343322753906
1534601357.370.961669921875,-0.31640625,0.1064453125,1.44195556641,0.358581542969,-0.0534057617188
1534601357.380.965087890625,-0.316162109375,0.0966796875,1.35803222656,0.30517578125,-0.244140625
1534601357.380.965576171875,-0.318603515625,0.100341796875,1.60217285156,0.442504882812,-0.297546386719
1534601357.380.967041015625,-0.31982421875,0.093994140625,1.63269042969,0.350952148438,-0.473022460938
1534601357.380.962646484375,-0.32080078125,0.102294921875,1.67846679688,0.511169433594,-0.869750976562
1534601357.390.965576171875,-0.323486328125,0.104248046875,1.72424316406,0.892639160156,-0.938415527344
1534601357.390.965576171875,-0.32177734375,0.09765625,1.38092041016,0.968933105469,-0.946044921875
1534601357.390.96533203125,-0.32080078125,0.094482421875,1.64031982422,0.396728515625,-0.450134277344
1534601357.40.963134765625,-0.322265625,0.09814453125,1.50299072266,0.236511230469,-0.411987304688
1534601357.40.966796875,-0.31884765625,0.09326171875,1.42669677734,0.473022460938,-0.396728515625
1534601357.40.970703125,-0.3193359375,0.094482421875,1.57165527344,0.67138671875,-0.579833984375
1534601357.410.972412109375,-0.320556640625,0.095458984375,1.5869140625,0.602722167969,-0.801086425781
1534601357.410.970703125,-0.315185546875,0.0966796875,1.78527832031,0.862121582031,-0.381469726562
1534601357.410.96435546875,-0.313720703125,0.094482421875,1.56402587891,0.831604003906,-0.617980957031
1534601357.420.969970703125,-0.31591796875,0.1025390625,1.64794921875,0.892639160156,-0.679016113281
1534601357.420.96923828125,-0.3173828125,0.098388671875,1.38854980469,0.892639160156,-0.9765625
1534601357.420.9697265625,-0.310791015625,0.099853515625,1.47247314453,1.07574462891,-0.679016113281
1534601357.430.966552734375,-0.313232421875,0.099365234375,1.62506103516,0.450134277344,-0.633239746094
1534601357.430.969482421875,-0.31298828125,0.101318359375,1.84631347656,0.42724609375,-0.877380371094
1534601357.430.96728515625,-0.3076171875,0.09521484375,1.63269042969,0.694274902344,-0.457763671875
1534601357.430.965576171875,-0.3076171875,0.10107421875,1.60980224609,0.701904296875,-0.9765625
1534601357.440.969482421875,-0.3115234375,0.10791015625,1.86157226562,0.67138671875,-0.762939453125
1534601357.440.969970703125,-0.306640625,0.10302734375,1.70135498047,0.991821289062,-0.67138671875
1534601357.440.972412109375,-0.313232421875,0.1015625,1.63269042969,0.503540039062,-0.778198242188
1534601357.450.970458984375,-0.310302734375,0.10546875,1.48773193359,0.801086425781,-0.839233398438
1534601357.460.974365234375,-0.307373046875,0.108642578125,1.25885009766,0.617980957031,-0.762939453125
1534601357.460.973388671875,-0.308837890625,0.103271484375,1.67083740234,0.679016113281,-0.465393066406
1534601357.460.9736328125,-0.309326171875,0.10888671875,1.54113769531,0.495910644531,-0.30517578125
1534601357.470.970947265625,-0.309326171875,0.10693359375,1.33514404297,0.625610351562,-0.381469726562
1534601357.470.97314453125,-0.306396484375,0.11328125,1.64031982422,0.450134277344,-0.18310546875
1534601357.470.974609375,-0.310546875,0.10693359375,1.50299072266,0.396728515625,-0.0228881835938
1534601357.480.972900390625,-0.31201171875,0.100830078125,1.67083740234,0.205993652344,0.152587890625
1534601357.480.97021484375,-0.31201171875,0.10107421875,1.44195556641,0.350952148438,0.1220703125
1534601357.480.9677734375,-0.314697265625,0.104248046875,1.36566162109,0.3662109375,0.328063964844
1534601357.480.968505859375,-0.31494140625,0.103515625,1.42669677734,0.343322753906,0.0381469726562
1534601357.490.966064453125,-0.31787109375,0.101318359375,1.48773193359,0.289916992188,0.389099121094
1534601357.490.970458984375,-0.3173828125,0.10205078125,1.31225585938,0.419616699219,0.259399414062
1534601357.490.970947265625,-0.316162109375,0.098876953125,1.35040283203,0.152587890625,0.160217285156
1534601357.50.970947265625,-0.3212890625,0.100341796875,1.66320800781,0.381469726562,0.129699707031
1534601357.50.970458984375,-0.316162109375,0.1005859375,1.39617919922,0.221252441406,-0.06103515625
1534601357.50.97021484375,-0.318359375,0.102294921875,1.67846679688,0.6103515625,-0.495910644531
1534601357.50.965576171875,-0.313720703125,0.093994140625,1.77001953125,0.579833984375,-0.175476074219
1534601357.510.968994140625,-0.316650390625,0.09423828125,1.51062011719,0.48828125,-0.389099121094
1534601357.510.968017578125,-0.318359375,0.1044921875,1.56402587891,0.503540039062,-0.373840332031
1534601357.510.964111328125,-0.321533203125,0.098876953125,1.52587890625,0.411987304688,-0.862121582031
1534601357.520.971923828125,-0.317138671875,0.101806640625,1.50299072266,0.907897949219,-0.411987304688
1534601357.520.965576171875,-0.317138671875,0.10205078125,1.41906738281,0.907897949219,-0.541687011719
1534601357.520.9697265625,-0.319091796875,0.091064453125,1.50299072266,0.6103515625,-0.724792480469
1534601357.530.96484375,-0.3193359375,0.1005859375,1.52587890625,0.686645507812,-0.717163085938
1534601357.530.96826171875,-0.321533203125,0.096923828125,1.68609619141,0.625610351562,-0.48828125
1534601357.530.970947265625,-0.3173828125,0.10107421875,1.5869140625,0.816345214844,-0.564575195312
1534601357.540.96728515625,-0.315673828125,0.09912109375,1.68609619141,0.8544921875,-0.587463378906
1534601357.540.970947265625,-0.312255859375,0.10400390625,1.44958496094,0.564575195312,-0.419616699219
1534601357.540.96728515625,-0.313232421875,0.10205078125,1.44195556641,0.801086425781,-0.534057617188
1534601357.550.967529296875,-0.3134765625,0.0947265625,1.66320800781,0.602722167969,-0.42724609375
1534601357.550.9677734375,-0.316162109375,0.099609375,1.708984375,0.48828125,-0.480651855469
1534601357.550.96435546875,-0.314208984375,0.1025390625,1.57165527344,0.724792480469,-0.679016113281
1534601357.560.971923828125,-0.311279296875,0.1015625,1.47247314453,0.663757324219,-0.511169433594
1534601357.560.97314453125,-0.312255859375,0.100830078125,1.75476074219,0.656127929688,-0.831604003906
1534601357.560.96923828125,-0.3115234375,0.107421875,1.68609619141,0.564575195312,-0.816345214844
1534601357.570.96826171875,-0.31103515625,0.10595703125,1.74713134766,0.732421875,-0.91552734375
1534601357.570.97216796875,-0.31201171875,0.101318359375,1.47247314453,0.648498535156,-0.831604003906
1534601357.570.971923828125,-0.31396484375,0.106201171875,1.44195556641,0.617980957031,-0.839233398438
1534601357.580.970703125,-0.30859375,0.104736328125,1.76239013672,0.656127929688,-0.694274902344
1534601357.580.97216796875,-0.308837890625,0.10546875,1.708984375,0.67138671875,-0.732421875
1534601357.580.97314453125,-0.3076171875,0.104248046875,1.55639648438,0.450134277344,-0.747680664062
1534601357.590.97265625,-0.31298828125,0.10791015625,1.54113769531,0.6103515625,-0.541687011719
1534601357.590.974853515625,-0.30712890625,0.10107421875,1.72424316406,0.801086425781,-0.175476074219
1534601357.590.970947265625,-0.307861328125,0.103515625,1.38092041016,0.312805175781,-0.175476074219
1534601357.60.9716796875,-0.312744140625,0.109130859375,1.29699707031,0.434875488281,0.221252441406
1534601357.60.968994140625,-0.314697265625,0.098876953125,1.47247314453,0.152587890625,-0.0152587890625
1534601357.610.9677734375,-0.312744140625,0.098876953125,1.82342529297,0.579833984375,0.0686645507812
1534601357.610.97412109375,-0.3193359375,0.100830078125,1.60217285156,0.602722167969,0.221252441406
1534601357.610.96826171875,-0.314208984375,0.099365234375,1.55639648438,0.48828125,-0.091552734375
1534601357.620.96826171875,-0.31298828125,0.099609375,1.43432617188,0.396728515625,-0.00762939453125
1534601357.620.96484375,-0.31787109375,0.10107421875,1.81579589844,0.572204589844,-0.0762939453125
1534601357.620.968017578125,-0.311767578125,0.100341796875,1.60217285156,0.625610351562,-0.511169433594
1534601357.620.970947265625,-0.320068359375,0.10595703125,1.50299072266,0.42724609375,-0.343322753906
1534601357.630.963134765625,-0.317626953125,0.103515625,1.67083740234,0.770568847656,-0.350952148438
1534601357.630.96142578125,-0.313720703125,0.107421875,1.68609619141,0.801086425781,-0.473022460938
1534601357.630.967529296875,-0.312744140625,0.103271484375,1.51062011719,0.518798828125,-0.648498535156
1534601357.640.9697265625,-0.31884765625,0.09765625,1.73187255859,0.320434570312,-0.801086425781
1534601357.640.968505859375,-0.3193359375,0.101806640625,1.56402587891,0.6103515625,-0.511169433594
1534601357.640.967041015625,-0.31982421875,0.1025390625,1.25122070312,0.694274902344,-0.640869140625
1534601357.650.968505859375,-0.320556640625,0.1044921875,1.75476074219,0.816345214844,-0.495910644531
1534601357.650.966796875,-0.320068359375,0.10107421875,1.66320800781,0.770568847656,-0.534057617188
1534601357.650.96533203125,-0.31640625,0.101806640625,1.29699707031,0.54931640625,-0.389099121094
1534601357.660.96875,-0.3173828125,0.103515625,1.69372558594,0.42724609375,-0.030517578125
1534601357.660.9677734375,-0.320068359375,0.1015625,1.69372558594,0.274658203125,-0.259399414062
1534601357.660.96630859375,-0.31787109375,0.100341796875,1.17492675781,0.396728515625,-0.381469726562
1534601357.670.96826171875,-0.313720703125,0.0986328125,1.41143798828,0.633239746094,-0.556945800781
1534601357.670.96923828125,-0.31396484375,0.101806640625,1.50299072266,0.465393066406,-0.6103515625
1534601357.670.966796875,-0.316162109375,0.101806640625,1.41143798828,0.3662109375,-0.808715820312
1534601357.680.968017578125,-0.31396484375,0.1015625,1.54876708984,0.862121582031,-0.694274902344
1534601357.680.971923828125,-0.310791015625,0.102783203125,1.51062011719,0.816345214844,-0.892639160156
1534601357.690.9716796875,-0.314208984375,0.1005859375,1.73950195312,0.534057617188,-0.885009765625
1534601357.690.973876953125,-0.307861328125,0.099609375,1.67083740234,0.709533691406,-0.900268554688
1534601357.690.970947265625,-0.307861328125,0.103515625,1.38092041016,0.717163085938,-0.839233398438
1534601357.70.969482421875,-0.310302734375,0.105712890625,1.78527832031,0.389099121094,-0.648498535156
1534601357.70.97607421875,-0.311279296875,0.10888671875,1.51062011719,0.785827636719,-0.595092773438
1534601357.70.97265625,-0.309814453125,0.100341796875,1.46484375,0.495910644531,-0.663757324219
1534601357.710.968017578125,-0.30859375,0.1005859375,1.49536132812,0.373840332031,-0.160217285156
1534601357.710.9697265625,-0.31201171875,0.1005859375,1.86920166016,0.556945800781,-0.00762939453125
1534601357.710.972412109375,-0.308349609375,0.099365234375,1.47247314453,0.137329101562,-0.0381469726562
1534601357.720.970703125,-0.312255859375,0.100341796875,1.47247314453,0.450134277344,0.129699707031
1534601357.720.971435546875,-0.31591796875,0.099853515625,1.66320800781,0.228881835938,0.236511230469
1534601357.720.97265625,-0.3125,0.10009765625,1.40380859375,0.663757324219,-0.0686645507812
1534601357.730.971923828125,-0.308837890625,0.094482421875,1.57928466797,0.282287597656,0.0457763671875
1534601357.730.965576171875,-0.31494140625,0.098876953125,1.39617919922,0.6103515625,-0.0228881835938
1534601357.730.9677734375,-0.3134765625,0.098388671875,1.59454345703,0.473022460938,-0.274658203125
1534601357.730.967529296875,-0.31494140625,0.103515625,1.51824951172,0.495910644531,-0.328063964844
1534601357.730.96826171875,-0.31640625,0.09912109375,1.64794921875,0.572204589844,-0.18310546875
1534601357.740.9736328125,-0.31494140625,0.104736328125,1.60980224609,0.740051269531,-0.320434570312
1534601357.740.96630859375,-0.318603515625,0.092529296875,1.51062011719,0.396728515625,-0.396728515625
1534601357.750.972412109375,-0.317138671875,0.10009765625,1.67083740234,0.701904296875,-0.42724609375
1534601357.750.969970703125,-0.310546875,0.101318359375,1.83868408203,0.801086425781,-0.679016113281
1534601357.760.96630859375,-0.318359375,0.1005859375,1.78527832031,0.91552734375,-0.282287597656
1534601357.760.96826171875,-0.3212890625,0.099853515625,1.66320800781,0.442504882812,-0.373840332031
1534601357.760.96826171875,-0.315185546875,0.094970703125,1.708984375,0.679016113281,-0.267028808594
1534601357.770.9658203125,-0.3134765625,0.09912109375,1.31988525391,0.663757324219,-0.358581542969
1534601357.770.97021484375,-0.317626953125,0.096923828125,1.67083740234,0.617980957031,0.0228881835938
1534601357.770.9677734375,-0.3154296875,0.098388671875,1.69372558594,0.457763671875,-0.267028808594
1534601357.770.969970703125,-0.31689453125,0.103271484375,1.59454345703,0.48828125,-0.00762939453125
1534601357.780.9677734375,-0.316162109375,0.1015625,1.66320800781,0.518798828125,-0.0228881835938
1534601357.780.966064453125,-0.318603515625,0.104736328125,1.46484375,0.495910644531,-0.350952148438
1534601357.780.96875,-0.316162109375,0.10205078125,1.48773193359,0.534057617188,-0.419616699219
1534601357.790.96484375,-0.315185546875,0.09912109375,1.64031982422,0.556945800781,-0.320434570312
1534601357.790.970458984375,-0.31689453125,0.1044921875,1.42669677734,0.625610351562,-0.465393066406
1534601357.790.968017578125,-0.31640625,0.1064453125,1.76239013672,0.801086425781,-0.518798828125
1534601357.80.968994140625,-0.3134765625,0.107421875,1.73187255859,0.67138671875,-0.679016113281
1534601357.80.971923828125,-0.31494140625,0.1025390625,1.50299072266,0.595092773438,-0.961303710938
1534601357.80.970947265625,-0.317626953125,0.11181640625,1.57165527344,0.648498535156,-0.900268554688
1534601357.810.9697265625,-0.31396484375,0.101806640625,1.52587890625,0.648498535156,-0.709533691406
1534601357.810.968017578125,-0.31494140625,0.1044921875,1.47247314453,0.862121582031,-0.991821289062
1534601357.810.967529296875,-0.311767578125,0.1083984375,1.73187255859,0.48828125,-0.701904296875
1534601357.820.971923828125,-0.316650390625,0.100830078125,1.79290771484,0.564575195312,-0.732421875
1534601357.820.95654296875,-0.2998046875,0.10107421875,1.93786621094,0.755310058594,-0.587463378906
1534601357.820.965576171875,-0.302978515625,0.1025390625,1.36566162109,0.473022460938,-0.579833984375
1534601357.830.96826171875,-0.31689453125,0.105712890625,1.44958496094,0.289916992188,-0.846862792969
1534601357.830.9775390625,-0.3095703125,0.095458984375,1.71661376953,0.114440917969,0.389099121094
1534601357.830.957275390625,-0.300048828125,0.101806640625,0.686645507812,1.54113769531,-0.42724609375
1534601357.830.979736328125,-0.3232421875,0.09521484375,1.92260742188,-0.335693359375,0.282287597656
1534601357.840.962646484375,-0.3173828125,0.10546875,1.22833251953,1.220703125,-0.404357910156
1534601357.840.974365234375,-0.313720703125,0.10009765625,1.18255615234,0.801086425781,-0.91552734375
1534601357.840.97412109375,-0.31005859375,0.100341796875,1.06048583984,1.18255615234,-0.320434570312
1534601357.850.973876953125,-0.32275390625,0.098388671875,1.91497802734,0.335693359375,-0.54931640625
1534601357.850.961669921875,-0.306640625,0.103515625,1.46484375,0.602722167969,-0.595092773438
1534601357.860.963623046875,-0.311279296875,0.103515625,1.52587890625,0.572204589844,-0.587463378906
1534601357.860.97412109375,-0.307861328125,0.099609375,1.33514404297,0.67138671875,-0.48828125
1534601357.860.97412109375,-0.31640625,0.10107421875,1.39617919922,0.3662109375,-0.724792480469
1534601357.870.963134765625,-0.313232421875,0.097900390625,1.73950195312,0.473022460938,0.0991821289062
1534601357.870.968017578125,-0.311767578125,0.100341796875,1.56402587891,0.91552734375,-0.389099121094
1534601357.870.967529296875,-0.31640625,0.095947265625,1.73187255859,0.717163085938,-0.419616699219
1534601357.880.96875,-0.31591796875,0.097900390625,1.80816650391,0.411987304688,-0.404357910156
1534601357.880.96923828125,-0.31640625,0.09716796875,1.39617919922,0.442504882812,-0.244140625
1534601357.880.972412109375,-0.31103515625,0.107666015625,1.36566162109,0.450134277344,-0.0228881835938
1534601357.880.966064453125,-0.313720703125,0.096435546875,1.41143798828,0.587463378906,-0.137329101562
1534601357.890.97314453125,-0.31640625,0.101806640625,1.62506103516,0.648498535156,0.0534057617188
1534601357.90.970458984375,-0.31591796875,0.103759765625,1.57928466797,0.930786132812,-0.114440917969
1534601357.90.966796875,-0.317626953125,0.10498046875,1.61743164062,0.312805175781,-0.289916992188
1534601357.90.968994140625,-0.316162109375,0.107666015625,1.57165527344,0.381469726562,-0.480651855469
1534601357.910.969970703125,-0.314208984375,0.10400390625,1.70135498047,0.473022460938,-0.679016113281
1534601357.910.971923828125,-0.3134765625,0.100341796875,1.31988525391,0.595092773438,-0.885009765625
1534601357.910.96923828125,-0.31591796875,0.10205078125,1.75476074219,0.930786132812,-0.465393066406
1534601357.910.970703125,-0.31787109375,0.109619140625,1.48010253906,0.42724609375,-0.381469726562
1534601357.920.9677734375,-0.316650390625,0.101806640625,1.54876708984,0.465393066406,-0.625610351562
1534601357.920.970703125,-0.31494140625,0.103759765625,1.60217285156,0.869750976562,-0.724792480469
1534601357.920.967041015625,-0.318359375,0.1005859375,1.54876708984,0.747680664062,-0.556945800781
1534601357.930.96875,-0.3154296875,0.10791015625,1.67083740234,0.625610351562,-0.564575195312
1534601357.930.970458984375,-0.314208984375,0.099609375,1.39617919922,0.473022460938,-0.236511230469
1534601357.930.966552734375,-0.31689453125,0.10693359375,1.60217285156,0.106811523438,-0.473022460938
1534601357.930.969970703125,-0.31201171875,0.10595703125,1.48010253906,0.686645507812,-0.3662109375
1534601357.940.972412109375,-0.31396484375,0.10546875,1.48773193359,0.579833984375,-0.816345214844
1534601357.940.96875,-0.31103515625,0.103759765625,1.55639648438,0.762939453125,-0.534057617188
1534601357.950.9697265625,-0.311767578125,0.1015625,1.48773193359,0.679016113281,-0.259399414062
1534601357.950.97021484375,-0.311279296875,0.103515625,1.50299072266,0.297546386719,-0.3662109375
1534601357.950.972412109375,-0.312744140625,0.101318359375,1.38092041016,0.320434570312,-0.457763671875
1534601357.960.968017578125,-0.314697265625,0.0966796875,1.41143798828,0.335693359375,-0.221252441406
1534601357.960.971923828125,-0.3115234375,0.10107421875,1.38854980469,0.244140625,-0.091552734375
1534601357.960.971923828125,-0.314453125,0.096923828125,1.63269042969,0.572204589844,-0.06103515625
1534601357.970.9697265625,-0.31494140625,0.102294921875,1.61743164062,0.411987304688,-0.213623046875
1534601357.970.968994140625,-0.310546875,0.1083984375,1.41906738281,0.755310058594,-0.389099121094
1534601357.970.97119140625,-0.314697265625,0.097412109375,1.47247314453,0.732421875,-0.411987304688
1534601357.980.96630859375,-0.3173828125,0.102294921875,1.52587890625,0.343322753906,-0.129699707031
1534601357.980.970703125,-0.313720703125,0.106689453125,1.59454345703,0.465393066406,-0.267028808594
1534601357.980.9697265625,-0.31640625,0.1015625,1.77764892578,0.556945800781,-0.3662109375
1534601357.990.96923828125,-0.317138671875,0.097412109375,1.75476074219,0.633239746094,-0.518798828125
1534601357.990.967529296875,-0.3134765625,0.10107421875,1.60217285156,0.762939453125,-0.221252441406
1534601358.00.970458984375,-0.3154296875,0.101806640625,1.55639648438,0.434875488281,-0.396728515625
1534601358.00.970947265625,-0.3154296875,0.104248046875,1.67846679688,0.79345703125,-0.160217285156
1534601358.00.969970703125,-0.31982421875,0.106201171875,1.59454345703,0.831604003906,-0.267028808594
1534601358.00.968994140625,-0.317626953125,0.1025390625,1.68609619141,0.762939453125,-0.312805175781
1534601358.010.967529296875,-0.318603515625,0.102783203125,1.31225585938,0.770568847656,-0.343322753906
1534601358.010.9677734375,-0.316162109375,0.094970703125,1.80053710938,0.656127929688,-0.328063964844
1534601358.010.96533203125,-0.31494140625,0.103515625,1.45721435547,0.48828125,-0.457763671875
1534601358.020.970703125,-0.317626953125,0.10205078125,1.64031982422,0.785827636719,-0.450134277344
1534601358.020.970458984375,-0.31689453125,0.101806640625,1.54113769531,0.503540039062,-0.335693359375
1534601358.020.965576171875,-0.319091796875,0.105712890625,1.78527832031,0.755310058594,-0.350952148438
1534601358.030.970458984375,-0.313232421875,0.106201171875,1.56402587891,0.480651855469,-0.541687011719
1534601358.030.966796875,-0.316650390625,0.1044921875,1.48010253906,0.541687011719,-0.480651855469
1534601358.030.970947265625,-0.3125,0.099365234375,1.66320800781,0.564575195312,-0.54931640625
1534601358.040.966796875,-0.314453125,0.1025390625,1.57165527344,0.54931640625,-0.503540039062
1534601358.050.96923828125,-0.308837890625,0.106689453125,1.50299072266,0.633239746094,-0.526428222656
1534601358.050.96630859375,-0.316162109375,0.100341796875,1.61743164062,0.312805175781,-0.534057617188
1534601358.060.96875,-0.310546875,0.10498046875,1.50299072266,0.495910644531,-0.457763671875
1534601358.060.970703125,-0.316650390625,0.10546875,1.52587890625,0.511169433594,-0.0457763671875
1534601358.060.96630859375,-0.31591796875,0.100341796875,1.49536132812,0.503540039062,-0.221252441406
1534601358.060.968017578125,-0.314208984375,0.105712890625,1.45721435547,0.434875488281,-0.350952148438
1534601358.070.970458984375,-0.315185546875,0.10400390625,1.57165527344,0.686645507812,-0.328063964844
1534601358.070.971923828125,-0.310546875,0.10205078125,1.59454345703,0.534057617188,-0.190734863281
1534601358.070.97021484375,-0.3173828125,0.100830078125,1.60217285156,0.617980957031,-0.0534057617188
1534601358.070.973876953125,-0.315185546875,0.0986328125,1.57165527344,0.54931640625,-0.198364257812
1534601358.080.97021484375,-0.3125,0.10400390625,1.37329101562,0.534057617188,-0.54931640625
1534601358.080.966552734375,-0.312744140625,0.098388671875,1.50299072266,0.717163085938,-0.144958496094
1534601358.080.970458984375,-0.312744140625,0.101806640625,1.44195556641,0.640869140625,-0.457763671875
1534601358.090.968994140625,-0.3134765625,0.1015625,1.64794921875,0.404357910156,-0.335693359375
1534601358.090.968017578125,-0.31396484375,0.098388671875,1.65557861328,0.778198242188,-0.335693359375
1534601358.090.971435546875,-0.3173828125,0.100830078125,1.77764892578,0.801086425781,-0.328063964844
1534601358.10.967041015625,-0.314208984375,0.1044921875,1.61743164062,0.625610351562,-0.534057617188
1534601358.10.967041015625,-0.3173828125,0.104248046875,1.56402587891,0.564575195312,-0.686645507812
1534601358.10.96826171875,-0.318603515625,0.110595703125,1.44958496094,0.556945800781,-0.419616699219
1534601358.110.969482421875,-0.31884765625,0.105224609375,1.77764892578,0.602722167969,-0.434875488281
1534601358.110.970458984375,-0.31396484375,0.10009765625,1.45721435547,0.617980957031,-0.450134277344
1534601358.110.965576171875,-0.316162109375,0.097412109375,1.50299072266,0.617980957031,-0.503540039062
1534601358.120.96923828125,-0.315185546875,0.0947265625,1.66320800781,0.48828125,-0.556945800781
1534601358.120.96728515625,-0.31787109375,0.10498046875,1.38854980469,0.679016113281,-0.411987304688
1534601358.120.970947265625,-0.31494140625,0.104248046875,1.71661376953,0.617980957031,-0.312805175781
1534601358.130.971923828125,-0.31640625,0.0986328125,1.57928466797,0.640869140625,-0.267028808594
1534601358.130.968994140625,-0.314697265625,0.10009765625,1.54876708984,0.54931640625,-0.556945800781
1534601358.130.96875,-0.3154296875,0.100341796875,1.55639648438,0.686645507812,-0.267028808594
1534601358.130.96875,-0.315185546875,0.102294921875,1.69372558594,0.930786132812,-0.686645507812
1534601358.140.9697265625,-0.319580078125,0.1083984375,1.79290771484,0.740051269531,-0.457763671875
1534601358.140.968017578125,-0.316162109375,0.105224609375,1.63269042969,0.679016113281,-0.572204589844
1534601358.140.96484375,-0.315673828125,0.099609375,1.28936767578,0.67138671875,-0.579833984375
1534601358.150.971435546875,-0.317138671875,0.09814453125,1.51062011719,0.839233398438,-0.625610351562
1534601358.150.97216796875,-0.314453125,0.103759765625,1.54876708984,0.434875488281,-0.419616699219
1534601358.150.968505859375,-0.314697265625,0.100830078125,1.54876708984,0.442504882812,-0.480651855469
1534601358.160.970458984375,-0.31298828125,0.108154296875,1.82342529297,0.495910644531,-0.358581542969
1534601358.160.969482421875,-0.313720703125,0.10595703125,1.60980224609,0.686645507812,-0.770568847656
1534601358.170.965087890625,-0.3154296875,0.1025390625,1.57165527344,0.534057617188,-0.564575195312
1534601358.170.96728515625,-0.311767578125,0.106689453125,1.62506103516,0.457763671875,-0.297546386719
1534601358.170.9716796875,-0.311767578125,0.108642578125,1.56402587891,0.648498535156,-0.282287597656
1534601358.180.971435546875,-0.311279296875,0.10009765625,1.220703125,0.663757324219,-0.160217285156
1534601358.180.973876953125,-0.313232421875,0.1015625,1.43432617188,0.54931640625,-0.480651855469
1534601358.190.968505859375,-0.30908203125,0.09765625,1.49536132812,0.701904296875,-0.595092773438
1534601358.190.965087890625,-0.314208984375,0.09912109375,1.61743164062,0.595092773438,-0.114440917969
1534601358.190.96728515625,-0.31640625,0.10205078125,1.27410888672,0.343322753906,-0.442504882812
1534601358.190.971435546875,-0.31494140625,0.0986328125,1.76239013672,0.457763671875,-0.320434570312
1534601358.20.971435546875,-0.31689453125,0.099365234375,1.45721435547,0.541687011719,-0.511169433594
1534601358.20.96826171875,-0.314453125,0.102294921875,1.38092041016,0.518798828125,-0.42724609375
1534601358.20.97021484375,-0.314208984375,0.1044921875,1.40380859375,0.640869140625,-0.442504882812
1534601358.210.968994140625,-0.318359375,0.098876953125,1.65557861328,0.656127929688,-0.350952148438
1534601358.210.969482421875,-0.313720703125,0.099609375,1.43432617188,0.564575195312,-0.328063964844
1534601358.210.9697265625,-0.3134765625,0.097412109375,1.69372558594,0.617980957031,-0.526428222656
1534601358.210.9736328125,-0.314453125,0.095703125,1.49536132812,0.411987304688,-0.274658203125
1534601358.220.972900390625,-0.31396484375,0.094970703125,1.53350830078,0.587463378906,-0.511169433594
1534601358.220.97265625,-0.314453125,0.09814453125,1.60980224609,0.656127929688,-0.297546386719
1534601358.220.967529296875,-0.314697265625,0.104248046875,1.69372558594,0.762939453125,-0.221252441406
1534601358.230.97119140625,-0.321533203125,0.101806640625,1.41906738281,0.495910644531,-0.473022460938
1534601358.230.970458984375,-0.31396484375,0.1044921875,1.33514404297,0.503540039062,-0.579833984375
1534601358.230.968017578125,-0.315673828125,0.10302734375,1.5869140625,0.8544921875,-0.213623046875
1534601358.230.966064453125,-0.31396484375,0.1025390625,1.57165527344,0.411987304688,-0.06103515625
1534601358.240.97119140625,-0.314697265625,0.103271484375,1.64031982422,0.640869140625,-0.419616699219
1534601358.240.970458984375,-0.31640625,0.09716796875,1.51824951172,0.755310058594,-0.274658203125
1534601358.250.970458984375,-0.317138671875,0.106689453125,1.57165527344,0.411987304688,-0.602722167969
1534601358.250.968017578125,-0.318603515625,0.107666015625,1.60217285156,0.740051269531,-0.48828125
1534601358.250.96826171875,-0.318603515625,0.105224609375,1.60217285156,0.709533691406,-0.389099121094
1534601358.260.970458984375,-0.3125,0.102783203125,1.49536132812,0.48828125,-0.442504882812
1534601358.260.96728515625,-0.310546875,0.097412109375,1.79290771484,0.30517578125,-0.297546386719
1534601358.260.970703125,-0.31591796875,0.106689453125,1.48010253906,0.617980957031,-0.526428222656
1534601358.270.9697265625,-0.312255859375,0.1025390625,1.57165527344,0.595092773438,-0.457763671875
1534601358.270.96826171875,-0.311279296875,0.099609375,1.83868408203,0.770568847656,-0.320434570312
1534601358.270.967529296875,-0.31787109375,0.09814453125,1.41143798828,0.541687011719,-0.54931640625
1534601358.280.969482421875,-0.316650390625,0.103759765625,1.47247314453,0.595092773438,-0.473022460938
1534601358.280.970703125,-0.31640625,0.1025390625,1.44958496094,0.465393066406,-0.656127929688
1534601358.290.96875,-0.3125,0.105224609375,1.48010253906,0.30517578125,-0.473022460938
1534601358.290.965576171875,-0.311767578125,0.104736328125,1.42669677734,0.587463378906,-0.518798828125
1534601358.290.968017578125,-0.313720703125,0.102294921875,1.89971923828,0.480651855469,-0.213623046875
1534601358.30.97021484375,-0.314453125,0.099853515625,1.42669677734,0.572204589844,-0.289916992188
1534601358.30.9677734375,-0.315185546875,0.104736328125,1.68609619141,0.587463378906,-0.396728515625
1534601358.30.97119140625,-0.311279296875,0.100341796875,1.36566162109,0.816345214844,-0.442504882812
1534601358.30.968994140625,-0.31298828125,0.10888671875,1.76239013672,0.633239746094,-0.495910644531
1534601358.310.9755859375,-0.314208984375,0.095703125,1.61743164062,0.656127929688,-0.465393066406
1534601358.310.969482421875,-0.31494140625,0.100830078125,1.64031982422,0.633239746094,-0.480651855469
1534601358.310.97119140625,-0.309814453125,0.1005859375,1.59454345703,0.633239746094,-0.6103515625
1534601358.320.9677734375,-0.314453125,0.09912109375,1.56402587891,0.968933105469,-0.495910644531
1534601358.320.973876953125,-0.313232421875,0.099365234375,1.38092041016,0.434875488281,-0.572204589844
1534601358.320.970458984375,-0.312255859375,0.103271484375,1.71661376953,0.495910644531,-0.442504882812
1534601358.330.968505859375,-0.313720703125,0.1005859375,1.45721435547,0.54931640625,-0.473022460938
1534601358.330.97021484375,-0.314453125,0.101806640625,1.49536132812,0.747680664062,-0.396728515625
1534601358.340.968505859375,-0.313720703125,0.099609375,1.48773193359,0.518798828125,-0.297546386719
1534601358.340.96728515625,-0.313232421875,0.103271484375,1.54876708984,0.534057617188,-0.198364257812
1534601358.340.96875,-0.315185546875,0.098388671875,1.39617919922,0.579833984375,-0.3662109375
1534601358.350.971923828125,-0.312744140625,0.100341796875,1.72424316406,0.656127929688,-0.175476074219
1534601358.350.974609375,-0.31689453125,0.09765625,1.59454345703,0.541687011719,-0.244140625
1534601358.350.96923828125,-0.322265625,0.10009765625,1.41143798828,0.404357910156,-0.244140625
1534601358.350.971435546875,-0.310546875,0.099609375,1.62506103516,0.663757324219,-0.381469726562
1534601358.360.968994140625,-0.312744140625,0.096435546875,1.76239013672,0.663757324219,-0.205993652344
1534601358.360.971923828125,-0.311279296875,0.09765625,1.64031982422,0.877380371094,-0.404357910156
1534601358.360.96533203125,-0.31787109375,0.10107421875,1.36566162109,0.450134277344,-0.48828125
1534601358.370.97021484375,-0.316650390625,0.101806640625,1.80816650391,0.587463378906,-0.54931640625
1534601358.370.971435546875,-0.316650390625,0.104248046875,1.57928466797,0.656127929688,-0.350952148438
1534601358.370.97216796875,-0.3173828125,0.103759765625,1.67846679688,0.885009765625,-0.595092773438
1534601358.380.96826171875,-0.31396484375,0.108154296875,1.48010253906,0.701904296875,-0.495910644531
1534601358.380.968994140625,-0.314697265625,0.102294921875,1.60217285156,0.442504882812,-0.465393066406
1534601358.380.970703125,-0.31396484375,0.099365234375,1.47247314453,0.747680664062,-0.411987304688
1534601358.390.966552734375,-0.320556640625,0.099853515625,1.20544433594,0.686645507812,-0.595092773438
1534601358.390.96728515625,-0.315185546875,0.099853515625,1.57165527344,0.587463378906,-0.411987304688
1534601358.390.970703125,-0.314697265625,0.1044921875,1.48773193359,0.335693359375,-0.434875488281
1534601358.40.96826171875,-0.318603515625,0.10791015625,1.46484375,0.572204589844,-0.274658203125
1534601358.40.9697265625,-0.31298828125,0.105224609375,1.56402587891,0.503540039062,-0.48828125
1534601358.40.97021484375,-0.312255859375,0.10693359375,1.69372558594,0.633239746094,-0.190734863281
1534601358.410.968994140625,-0.316650390625,0.10400390625,1.62506103516,0.579833984375,-0.701904296875
1534601358.410.96826171875,-0.312744140625,0.0986328125,1.44195556641,0.282287597656,-0.350952148438
1534601358.410.968017578125,-0.319580078125,0.10009765625,1.59454345703,0.495910644531,-0.465393066406
1534601358.420.97021484375,-0.313232421875,0.10693359375,1.43432617188,0.656127929688,-0.450134277344
1534601358.420.970458984375,-0.31494140625,0.100830078125,1.35040283203,0.587463378906,-0.419616699219
1534601358.420.969482421875,-0.317626953125,0.09814453125,1.43432617188,0.885009765625,-0.595092773438
1534601358.430.96875,-0.317626953125,0.099609375,1.60980224609,0.694274902344,-0.335693359375
1534601358.430.96875,-0.313232421875,0.102783203125,1.60217285156,0.572204589844,-0.343322753906
1534601358.430.96826171875,-0.312255859375,0.10205078125,1.46484375,0.564575195312,-0.137329101562
1534601358.440.969970703125,-0.314208984375,0.1025390625,1.78527832031,0.640869140625,-0.251770019531
1534601358.440.969970703125,-0.314697265625,0.099609375,1.51824951172,0.679016113281,-0.358581542969
1534601358.440.963623046875,-0.3125,0.10302734375,1.62506103516,0.495910644531,-0.381469726562
1534601358.450.9736328125,-0.315185546875,0.10400390625,1.50299072266,0.457763671875,-0.137329101562
1534601358.450.970703125,-0.31494140625,0.1064453125,1.53350830078,0.358581542969,-0.328063964844
1534601358.460.9658203125,-0.317138671875,0.101318359375,1.64031982422,0.701904296875,-0.480651855469
1534601358.460.96875,-0.313720703125,0.0927734375,1.49536132812,0.335693359375,-0.228881835938
1534601358.460.96923828125,-0.315673828125,0.09375,1.66320800781,0.633239746094,-0.297546386719
1534601358.470.967529296875,-0.3095703125,0.10205078125,1.77764892578,0.518798828125,-0.442504882812
1534601358.480.97021484375,-0.312744140625,0.10009765625,1.46484375,0.480651855469,-0.343322753906
1534601358.480.970703125,-0.31298828125,0.106201171875,1.74713134766,0.732421875,-0.411987304688
1534601358.480.968994140625,-0.317138671875,0.10546875,1.51062011719,0.442504882812,-0.205993652344
1534601358.490.968994140625,-0.317626953125,0.103759765625,1.41143798828,0.701904296875,-0.396728515625
1534601358.490.968505859375,-0.31396484375,0.101806640625,1.43432617188,0.450134277344,-0.434875488281
1534601358.490.9658203125,-0.314697265625,0.10498046875,1.38092041016,0.747680664062,-0.457763671875
1534601358.490.971435546875,-0.31494140625,0.104736328125,1.29699707031,0.663757324219,-0.282287597656
1534601358.50.97119140625,-0.312255859375,0.099853515625,1.5869140625,0.747680664062,-0.396728515625
1534601358.50.97021484375,-0.312744140625,0.097412109375,1.47247314453,0.595092773438,-0.30517578125
1534601358.50.96923828125,-0.3115234375,0.103515625,1.57165527344,0.572204589844,-0.251770019531
1534601358.510.969482421875,-0.3154296875,0.100830078125,1.68609619141,0.526428222656,-0.404357910156
1534601358.510.971435546875,-0.31298828125,0.10546875,1.5869140625,0.587463378906,-0.244140625
1534601358.510.971923828125,-0.311279296875,0.103271484375,1.48773193359,0.579833984375,-0.1220703125
1534601358.510.97021484375,-0.317626953125,0.100341796875,1.66320800781,0.648498535156,-0.274658203125
1534601358.520.96728515625,-0.3154296875,0.103759765625,1.60217285156,0.709533691406,-0.480651855469
1534601358.520.968994140625,-0.317138671875,0.10107421875,1.79290771484,0.556945800781,-0.373840332031
1534601358.520.967529296875,-0.312744140625,0.102783203125,1.52587890625,0.556945800781,-0.343322753906
1534601358.530.966552734375,-0.314453125,0.09765625,1.63269042969,0.67138671875,-0.434875488281
1534601358.530.96337890625,-0.31689453125,0.1025390625,1.59454345703,0.6103515625,-0.411987304688
1534601358.530.9697265625,-0.315185546875,0.103515625,1.54876708984,0.724792480469,-0.541687011719
1534601358.540.97216796875,-0.31103515625,0.1015625,1.48010253906,0.717163085938,-0.312805175781
1534601358.540.97021484375,-0.31396484375,0.104248046875,1.54113769531,0.701904296875,-0.54931640625
1534601358.550.965576171875,-0.311279296875,0.102294921875,1.5869140625,0.54931640625,-0.518798828125
1534601358.550.9677734375,-0.3134765625,0.101806640625,1.50299072266,0.770568847656,-0.0991821289062
1534601358.550.967529296875,-0.314208984375,0.101318359375,1.77764892578,0.42724609375,-0.3662109375
1534601358.560.968994140625,-0.31298828125,0.100341796875,1.40380859375,0.419616699219,-0.54931640625
1534601358.560.967041015625,-0.314208984375,0.09912109375,1.51824951172,0.67138671875,-0.701904296875
1534601358.560.969482421875,-0.313720703125,0.09716796875,1.43432617188,0.541687011719,-0.411987304688
1534601358.570.970458984375,-0.312255859375,0.100830078125,1.60980224609,0.564575195312,-0.404357910156
1534601358.570.9697265625,-0.312255859375,0.102783203125,1.74713134766,0.640869140625,-0.526428222656
1534601358.570.968505859375,-0.31591796875,0.1015625,1.67846679688,0.572204589844,-0.205993652344
1534601358.580.96875,-0.318115234375,0.1015625,1.67083740234,0.6103515625,-0.396728515625
1534601358.580.967041015625,-0.31640625,0.101806640625,1.65557861328,0.503540039062,-0.419616699219
1534601358.580.97119140625,-0.31298828125,0.103759765625,1.32751464844,0.724792480469,-0.320434570312
1534601358.590.97119140625,-0.310302734375,0.1044921875,1.71661376953,0.48828125,-0.42724609375
1534601358.590.969482421875,-0.31396484375,0.096435546875,1.64794921875,0.770568847656,-0.343322753906
1534601358.590.97021484375,-0.3134765625,0.10400390625,1.52587890625,0.442504882812,-0.511169433594
1534601358.60.973388671875,-0.3134765625,0.09765625,1.64794921875,0.625610351562,-0.213623046875
1534601358.60.96630859375,-0.314697265625,0.10498046875,1.43432617188,0.534057617188,-0.267028808594
1534601358.60.9658203125,-0.31640625,0.099365234375,1.41143798828,0.801086425781,-0.221252441406
1534601358.610.9677734375,-0.314453125,0.102783203125,1.75476074219,0.48828125,-0.358581542969
1534601358.610.96875,-0.317138671875,0.105224609375,1.42669677734,0.579833984375,-0.320434570312
1534601358.610.965576171875,-0.315185546875,0.10400390625,1.62506103516,0.389099121094,-0.167846679688
1534601358.620.970458984375,-0.316650390625,0.107666015625,1.39617919922,0.587463378906,-0.42724609375
1534601358.620.9697265625,-0.317138671875,0.099365234375,1.38854980469,0.740051269531,-0.389099121094
1534601358.620.97119140625,-0.311279296875,0.10302734375,1.77001953125,0.373840332031,-0.198364257812
1534601358.630.96484375,-0.314453125,0.100830078125,1.63269042969,0.747680664062,-0.526428222656
1534601358.640.967529296875,-0.3173828125,0.109130859375,1.65557861328,0.816345214844,-0.335693359375
1534601358.640.96923828125,-0.315673828125,0.102294921875,1.60980224609,0.755310058594,-0.54931640625
1534601358.640.96826171875,-0.31396484375,0.101318359375,1.67083740234,0.617980957031,-0.465393066406
1534601358.650.965087890625,-0.318115234375,0.100830078125,1.47247314453,0.411987304688,-0.541687011719
1534601358.650.970947265625,-0.315673828125,0.10400390625,1.70135498047,0.648498535156,-0.381469726562
1534601358.650.96923828125,-0.31591796875,0.106689453125,1.57165527344,0.633239746094,-0.373840332031
1534601358.650.969970703125,-0.31494140625,0.104248046875,1.53350830078,0.358581542969,-0.373840332031
1534601358.660.967041015625,-0.31494140625,0.09619140625,1.46484375,0.816345214844,-0.617980957031
1534601358.660.96728515625,-0.313720703125,0.097412109375,1.68609619141,0.419616699219,-0.686645507812
1534601358.660.971435546875,-0.31396484375,0.09814453125,1.61743164062,0.640869140625,-0.312805175781
1534601358.670.966796875,-0.31494140625,0.104248046875,1.53350830078,0.587463378906,-0.442504882812
1534601358.670.97265625,-0.31396484375,0.099853515625,1.79290771484,0.328063964844,-0.541687011719
1534601358.670.968017578125,-0.31298828125,0.102783203125,1.66320800781,0.640869140625,-0.572204589844
1534601358.670.971435546875,-0.316650390625,0.104248046875,1.33514404297,0.473022460938,-0.320434570312
1534601358.680.970703125,-0.31640625,0.106201171875,1.44958496094,0.48828125,-0.495910644531
1534601358.680.96484375,-0.313720703125,0.103271484375,1.63269042969,0.48828125,-0.518798828125
1534601358.680.966796875,-0.314453125,0.10595703125,1.67846679688,0.67138671875,-0.434875488281
1534601358.690.96728515625,-0.31396484375,0.09716796875,1.51824951172,0.396728515625,-0.541687011719
1534601358.690.968994140625,-0.31201171875,0.1044921875,1.51062011719,0.686645507812,-0.30517578125
1534601358.690.966552734375,-0.313232421875,0.101318359375,1.72424316406,0.48828125,-0.419616699219
1534601358.70.969482421875,-0.310546875,0.107421875,1.70135498047,0.770568847656,-0.259399414062
1534601358.70.966064453125,-0.313720703125,0.099853515625,1.5869140625,0.808715820312,-0.526428222656
1534601358.710.968505859375,-0.310302734375,0.102294921875,1.70135498047,0.457763671875,-0.18310546875
1534601358.710.9697265625,-0.3134765625,0.1044921875,1.75476074219,0.709533691406,-0.625610351562
1534601358.710.972412109375,-0.315673828125,0.099853515625,1.64794921875,0.42724609375,-0.190734863281
1534601358.710.972412109375,-0.318359375,0.103271484375,1.40380859375,0.846862792969,-0.312805175781
1534601358.720.96923828125,-0.315673828125,0.102783203125,1.54113769531,0.572204589844,-0.42724609375
1534601358.720.970458984375,-0.316650390625,0.103759765625,1.60980224609,0.67138671875,-0.312805175781
1534601358.720.97265625,-0.31640625,0.101318359375,1.60980224609,0.480651855469,-0.205993652344
1534601358.720.974853515625,-0.314697265625,0.102294921875,1.66320800781,0.701904296875,-0.511169433594
1534601358.730.9697265625,-0.3154296875,0.106689453125,1.52587890625,0.518798828125,-0.320434570312
1534601358.730.97119140625,-0.31298828125,0.103759765625,1.59454345703,0.625610351562,-0.442504882812
1534601358.740.97021484375,-0.315673828125,0.095703125,1.43432617188,0.595092773438,-0.343322753906
1534601358.740.96875,-0.317138671875,0.101806640625,1.49536132812,0.556945800781,-0.312805175781
1534601358.740.969970703125,-0.3193359375,0.104248046875,1.50299072266,0.495910644531,-0.518798828125
1534601358.750.968017578125,-0.315185546875,0.107421875,1.51062011719,0.534057617188,-0.587463378906
1534601358.750.965087890625,-0.314697265625,0.10302734375,1.48773193359,0.770568847656,-0.42724609375
1534601358.750.968017578125,-0.314208984375,0.107666015625,1.73950195312,0.3662109375,-0.526428222656
1534601358.760.971435546875,-0.318359375,0.10546875,1.60217285156,0.595092773438,-0.503540039062
1534601358.760.971435546875,-0.312744140625,0.10791015625,1.69372558594,0.839233398438,-0.518798828125
1534601358.760.96923828125,-0.310302734375,0.09912109375,1.51824951172,0.526428222656,-0.587463378906
1534601358.770.966552734375,-0.31494140625,0.10205078125,1.59454345703,0.701904296875,-0.411987304688
1534601358.770.969482421875,-0.3125,0.102783203125,1.19018554688,0.442504882812,-0.450134277344
1534601358.780.96826171875,-0.31494140625,0.103759765625,1.68609619141,0.48828125,-0.511169433594
1534601358.780.969970703125,-0.312255859375,0.10498046875,1.5869140625,0.579833984375,-0.152587890625
1534601358.780.9716796875,-0.312744140625,0.103515625,1.56402587891,0.778198242188,-0.0381469726562
1534601358.790.966552734375,-0.313232421875,0.1015625,1.51062011719,0.762939453125,-0.450134277344
1534601358.790.969482421875,-0.31396484375,0.1005859375,1.49536132812,0.640869140625,-0.808715820312
1534601358.790.967041015625,-0.315673828125,0.102783203125,1.50299072266,0.762939453125,-0.389099121094
1534601358.790.966796875,-0.3173828125,0.1025390625,1.62506103516,0.625610351562,-0.587463378906
1534601358.80.97119140625,-0.314208984375,0.103271484375,1.61743164062,0.617980957031,-0.473022460938
1534601358.80.972412109375,-0.3115234375,0.101318359375,1.69372558594,0.732421875,-0.434875488281
1534601358.80.970458984375,-0.31396484375,0.105224609375,1.35040283203,0.526428222656,-0.358581542969
1534601358.810.966064453125,-0.316650390625,0.10498046875,1.62506103516,0.663757324219,-0.396728515625
1534601358.810.96630859375,-0.312744140625,0.103271484375,1.54876708984,0.663757324219,-0.205993652344
1534601358.810.972900390625,-0.314208984375,0.1025390625,1.45721435547,0.595092773438,-0.495910644531
1534601358.810.9716796875,-0.312255859375,0.098388671875,1.51824951172,0.244140625,-0.54931640625
1534601358.820.9677734375,-0.314453125,0.09912109375,1.35040283203,0.785827636719,-0.526428222656
1534601358.820.970703125,-0.31201171875,0.104736328125,1.59454345703,0.679016113281,-0.526428222656
1534601358.820.96826171875,-0.313232421875,0.103515625,1.48773193359,0.831604003906,-0.42724609375
1534601358.830.968017578125,-0.314697265625,0.10107421875,1.69372558594,0.572204589844,-0.396728515625
1534601358.830.968505859375,-0.312744140625,0.104248046875,1.39617919922,0.617980957031,-0.160217285156
1534601358.830.97314453125,-0.314697265625,0.094482421875,1.60980224609,0.503540039062,-0.251770019531
1534601358.840.969970703125,-0.317626953125,0.0966796875,1.69372558594,0.625610351562,-0.434875488281
1534601358.840.968994140625,-0.314697265625,0.10205078125,1.25885009766,0.54931640625,-0.457763671875
1534601358.850.969482421875,-0.3173828125,0.10009765625,1.53350830078,0.526428222656,-0.396728515625
1534601358.850.967529296875,-0.31298828125,0.10546875,1.63269042969,0.511169433594,-0.289916992188
1534601358.850.972412109375,-0.3115234375,0.104736328125,1.42669677734,0.343322753906,-0.526428222656
1534601358.860.964599609375,-0.31201171875,0.103515625,1.42669677734,0.679016113281,-0.389099121094
1534601358.860.971923828125,-0.314697265625,0.10107421875,1.39617919922,0.457763671875,-0.297546386719
1534601358.860.967529296875,-0.313232421875,0.106689453125,1.57928466797,0.473022460938,-0.480651855469
1534601358.860.9677734375,-0.315673828125,0.10595703125,1.72424316406,0.701904296875,-0.419616699219
1534601358.870.96826171875,-0.317626953125,0.100341796875,1.53350830078,0.595092773438,-0.167846679688
1534601358.870.970458984375,-0.315673828125,0.10302734375,1.47247314453,0.785827636719,-0.442504882812
1534601358.870.974853515625,-0.315185546875,0.097900390625,1.56402587891,0.633239746094,-0.480651855469
1534601358.880.97021484375,-0.314208984375,0.09814453125,1.35040283203,0.251770019531,-0.289916992188
1534601358.880.968505859375,-0.315673828125,0.105224609375,1.35040283203,0.503540039062,-0.465393066406
1534601358.880.96923828125,-0.317138671875,0.10107421875,1.51062011719,0.511169433594,-0.190734863281
1534601358.890.969482421875,-0.314697265625,0.099365234375,1.3427734375,0.801086425781,-0.328063964844
1534601358.890.969970703125,-0.31591796875,0.102294921875,1.60980224609,0.495910644531,-0.350952148438
1534601358.90.96337890625,-0.31494140625,0.103271484375,1.50299072266,0.625610351562,-0.602722167969
1534601358.90.9677734375,-0.3134765625,0.1015625,1.38854980469,0.480651855469,-0.556945800781
1534601358.90.968017578125,-0.314453125,0.102294921875,1.41143798828,0.709533691406,-0.274658203125
1534601358.90.96826171875,-0.315185546875,0.1005859375,1.55639648438,0.335693359375,-0.328063964844
1534601358.910.966796875,-0.316650390625,0.102783203125,1.57165527344,0.526428222656,-0.42724609375
1534601358.910.9697265625,-0.31201171875,0.104248046875,1.708984375,0.717163085938,-0.228881835938
1534601358.910.971435546875,-0.312255859375,0.0986328125,1.5869140625,0.518798828125,-0.3662109375
1534601358.920.966796875,-0.311279296875,0.09814453125,1.37329101562,0.679016113281,-0.411987304688
1534601358.920.96923828125,-0.317626953125,0.103759765625,1.47247314453,0.465393066406,-0.282287597656
1534601358.930.970703125,-0.314208984375,0.102294921875,1.55639648438,0.404357910156,-0.511169433594
1534601358.930.969970703125,-0.31201171875,0.1015625,1.59454345703,0.656127929688,-0.42724609375
1534601358.930.970947265625,-0.3115234375,0.09912109375,1.41143798828,0.877380371094,-0.442504882812
1534601358.940.96826171875,-0.315185546875,0.104248046875,1.71661376953,0.595092773438,-0.3662109375
1534601358.940.968017578125,-0.31640625,0.101318359375,1.69372558594,0.564575195312,-0.42724609375
1534601358.940.971435546875,-0.314208984375,0.10302734375,1.49536132812,0.717163085938,-0.450134277344
1534601358.940.969482421875,-0.3154296875,0.09326171875,1.55639648438,0.48828125,-0.42724609375
1534601358.950.966796875,-0.31396484375,0.099853515625,1.79290771484,0.648498535156,-0.244140625
1534601358.950.967529296875,-0.315185546875,0.1015625,1.61743164062,0.556945800781,-0.556945800781
1534601358.950.97119140625,-0.3173828125,0.10009765625,1.53350830078,0.831604003906,-0.251770019531
1534601358.960.969482421875,-0.311767578125,0.10400390625,1.43432617188,0.442504882812,-0.633239746094
1534601358.960.96826171875,-0.315673828125,0.1015625,1.55639648438,0.648498535156,-0.259399414062
1534601358.960.9697265625,-0.31494140625,0.09716796875,1.39617919922,0.6103515625,-0.404357910156
1534601358.960.96728515625,-0.315185546875,0.099609375,1.44958496094,0.656127929688,-0.373840332031
1534601358.970.970947265625,-0.314208984375,0.097900390625,1.64031982422,0.556945800781,-0.473022460938
1534601358.970.96875,-0.314697265625,0.103271484375,1.38854980469,0.686645507812,-0.274658203125
1534601358.980.969970703125,-0.3134765625,0.107421875,1.65557861328,0.785827636719,-0.320434570312
1534601358.980.96875,-0.312744140625,0.101806640625,1.62506103516,0.762939453125,-0.457763671875
1534601358.980.9716796875,-0.31787109375,0.103759765625,1.73187255859,0.640869140625,-0.457763671875
1534601358.980.97021484375,-0.312744140625,0.107421875,1.38092041016,0.6103515625,-0.541687011719
1534601358.990.9677734375,-0.314453125,0.10107421875,1.20544433594,0.465393066406,-0.434875488281
1534601358.990.971435546875,-0.31884765625,0.103271484375,1.63269042969,0.740051269531,-0.48828125
1534601359.00.9716796875,-0.31591796875,0.101806640625,1.52587890625,0.564575195312,-0.411987304688
1534601359.00.970947265625,-0.31591796875,0.09765625,1.74713134766,0.740051269531,-0.343322753906
1534601359.00.9677734375,-0.313720703125,0.099853515625,1.44958496094,0.572204589844,-0.465393066406
1534601359.010.96728515625,-0.317138671875,0.104736328125,1.55639648438,0.572204589844,-0.411987304688
1534601359.010.966796875,-0.310791015625,0.103759765625,1.67846679688,0.717163085938,-0.633239746094
1534601359.010.970703125,-0.312744140625,0.1005859375,1.48773193359,0.411987304688,-0.389099121094
1534601359.020.9716796875,-0.313232421875,0.10400390625,1.53350830078,0.564575195312,-0.3662109375
1534601359.020.967529296875,-0.3154296875,0.10400390625,1.48773193359,0.526428222656,-0.30517578125
1534601359.020.9697265625,-0.31640625,0.1025390625,1.77001953125,0.778198242188,-0.625610351562
1534601359.020.969482421875,-0.31201171875,0.099365234375,1.49536132812,0.778198242188,-0.419616699219
1534601359.030.967041015625,-0.31396484375,0.104736328125,1.61743164062,0.595092773438,-0.419616699219
1534601359.030.968994140625,-0.31689453125,0.099365234375,1.42669677734,0.602722167969,-0.6103515625
1534601359.030.967529296875,-0.3115234375,0.1015625,1.63269042969,0.389099121094,-0.396728515625
1534601359.040.970703125,-0.3154296875,0.097412109375,1.59454345703,0.747680664062,-0.480651855469
1534601359.040.96875,-0.3134765625,0.107421875,1.55639648438,0.816345214844,-0.633239746094
1534601359.040.968505859375,-0.3154296875,0.100341796875,1.47247314453,0.732421875,-0.495910644531
1534601359.050.9677734375,-0.3154296875,0.099609375,1.73950195312,0.526428222656,-0.320434570312
1534601359.050.968994140625,-0.313720703125,0.10498046875,1.55639648438,0.572204589844,-0.373840332031
1534601359.060.9697265625,-0.316650390625,0.101318359375,1.40380859375,0.358581542969,-0.389099121094
1534601359.060.96533203125,-0.310546875,0.10546875,1.31225585938,0.564575195312,-0.42724609375
1534601359.070.970703125,-0.3154296875,0.09326171875,1.45721435547,0.663757324219,-0.137329101562
1534601359.070.97119140625,-0.3173828125,0.093994140625,1.49536132812,0.556945800781,-0.373840332031
1534601359.070.969482421875,-0.31298828125,0.103759765625,1.59454345703,0.473022460938,-0.503540039062
1534601359.070.96875,-0.3154296875,0.096435546875,1.51824951172,0.694274902344,-0.289916992188
1534601359.080.9716796875,-0.31298828125,0.10302734375,1.52587890625,0.900268554688,-0.442504882812
1534601359.080.97021484375,-0.317138671875,0.103515625,1.39617919922,0.54931640625,-0.389099121094
1534601359.080.969482421875,-0.314453125,0.096435546875,1.32751464844,0.503540039062,-0.473022460938
1534601359.090.970947265625,-0.316162109375,0.103515625,1.69372558594,0.67138671875,-0.129699707031
1534601359.090.97119140625,-0.31494140625,0.097412109375,1.54876708984,0.503540039062,-0.450134277344
1534601359.090.970458984375,-0.31396484375,0.10107421875,1.54113769531,0.656127929688,-0.495910644531
1534601359.090.970458984375,-0.31591796875,0.09814453125,1.63269042969,0.709533691406,-0.480651855469
1534601359.10.97216796875,-0.313720703125,0.103515625,1.50299072266,0.625610351562,-0.495910644531
1534601359.10.97119140625,-0.318603515625,0.105224609375,1.89971923828,0.541687011719,-0.396728515625
1534601359.10.9697265625,-0.31298828125,0.103515625,1.44958496094,0.465393066406,-0.30517578125
1534601359.110.9697265625,-0.316650390625,0.09765625,1.60217285156,0.48828125,-0.724792480469
1534601359.110.96630859375,-0.31298828125,0.10205078125,1.62506103516,0.396728515625,-0.617980957031
1534601359.110.96484375,-0.31494140625,0.10546875,1.57165527344,0.411987304688,-0.404357910156
1534601359.120.972412109375,-0.31640625,0.101318359375,1.69372558594,0.503540039062,-0.06103515625
1534601359.120.9697265625,-0.315673828125,0.100830078125,1.64031982422,0.411987304688,-0.267028808594
1534601359.120.973876953125,-0.31640625,0.10595703125,1.54876708984,0.717163085938,-0.228881835938
1534601359.130.971435546875,-0.312744140625,0.09912109375,1.78527832031,0.465393066406,-0.434875488281
1534601359.130.968994140625,-0.312744140625,0.102783203125,1.64794921875,0.648498535156,-0.381469726562
1534601359.130.9755859375,-0.31396484375,0.103759765625,1.48010253906,0.640869140625,-0.350952148438
1534601359.140.96728515625,-0.318359375,0.10205078125,1.60217285156,0.541687011719,-0.473022460938
1534601359.140.96826171875,-0.31396484375,0.09619140625,1.76239013672,0.373840332031,-0.450134277344
1534601359.140.971435546875,-0.318603515625,0.1044921875,1.54113769531,0.663757324219,-0.381469726562
1534601359.150.969970703125,-0.314208984375,0.10693359375,1.42669677734,0.541687011719,-0.198364257812
1534601359.150.96875,-0.3154296875,0.106689453125,1.53350830078,0.923156738281,-0.411987304688
1534601359.150.968017578125,-0.309814453125,0.108154296875,1.53350830078,0.236511230469,-0.343322753906
1534601359.160.970947265625,-0.3173828125,0.1015625,1.77764892578,0.48828125,-0.587463378906
1534601359.160.9697265625,-0.31298828125,0.103271484375,1.3427734375,0.541687011719,-0.373840332031
1534601359.160.970703125,-0.312744140625,0.09619140625,1.41906738281,0.587463378906,-0.404357910156
1534601359.170.970703125,-0.313720703125,0.106689453125,1.52587890625,0.755310058594,-0.205993652344
1534601359.170.96923828125,-0.31982421875,0.10986328125,1.35040283203,0.473022460938,-0.328063964844
1534601359.180.97021484375,-0.31494140625,0.102294921875,1.41906738281,0.396728515625,-0.373840332031
1534601359.180.969970703125,-0.317626953125,0.10009765625,1.84631347656,0.236511230469,-0.6103515625
1534601359.180.97119140625,-0.31494140625,0.10205078125,1.51824951172,0.640869140625,-0.526428222656
1534601359.190.970703125,-0.317626953125,0.0986328125,1.44195556641,0.495910644531,-0.587463378906
1534601359.190.969970703125,-0.3154296875,0.099609375,1.59454345703,0.686645507812,-0.320434570312
1534601359.190.96923828125,-0.3154296875,0.102294921875,1.47247314453,0.686645507812,-0.335693359375
1534601359.190.967529296875,-0.314453125,0.099365234375,1.61743164062,0.358581542969,-0.556945800781
1534601359.20.96826171875,-0.314697265625,0.099365234375,1.62506103516,0.564575195312,-0.343322753906
1534601359.20.969482421875,-0.31591796875,0.109130859375,1.55639648438,0.434875488281,-0.648498535156
1534601359.20.968017578125,-0.314208984375,0.100830078125,1.79290771484,0.450134277344,-0.656127929688
1534601359.210.97119140625,-0.314697265625,0.100341796875,1.64794921875,0.297546386719,-0.282287597656
1534601359.210.97119140625,-0.314208984375,0.100341796875,1.61743164062,0.556945800781,-0.396728515625
1534601359.220.969970703125,-0.313232421875,0.100830078125,1.82342529297,0.373840332031,-0.297546386719
1534601359.220.970703125,-0.313720703125,0.1083984375,1.45721435547,0.480651855469,-0.450134277344
1534601359.230.968505859375,-0.315185546875,0.109130859375,1.54113769531,0.701904296875,-0.495910644531
1534601359.230.96630859375,-0.311279296875,0.101318359375,1.62506103516,0.343322753906,-0.335693359375
1534601359.230.967529296875,-0.3134765625,0.09765625,1.33514404297,0.701904296875,-0.267028808594
1534601359.230.9677734375,-0.3134765625,0.10302734375,1.62506103516,0.862121582031,-0.411987304688
1534601359.240.971435546875,-0.315673828125,0.09326171875,1.71661376953,0.54931640625,-0.297546386719
1534601359.240.971923828125,-0.318115234375,0.10546875,1.41906738281,0.579833984375,-0.244140625
1534601359.240.96875,-0.316162109375,0.099609375,1.70135498047,0.556945800781,-0.373840332031
1534601359.250.968017578125,-0.312255859375,0.097412109375,1.46484375,0.572204589844,-0.312805175781
1534601359.250.965576171875,-0.31494140625,0.1044921875,1.51062011719,0.495910644531,-0.137329101562
1534601359.250.96826171875,-0.315673828125,0.105712890625,1.77001953125,0.572204589844,-0.396728515625
1534601359.250.96728515625,-0.31884765625,0.103271484375,1.45721435547,0.404357910156,-0.358581542969
1534601359.260.968994140625,-0.313720703125,0.102294921875,1.62506103516,0.602722167969,-0.556945800781
1534601359.260.969482421875,-0.31494140625,0.101806640625,1.19781494141,0.556945800781,-0.48828125
1534601359.260.967529296875,-0.314697265625,0.107666015625,1.73950195312,0.511169433594,-0.389099121094
1534601359.270.968505859375,-0.3154296875,0.10009765625,1.49536132812,0.633239746094,-0.450134277344
1534601359.270.969482421875,-0.314208984375,0.104248046875,1.44195556641,0.938415527344,-0.396728515625
1534601359.270.97021484375,-0.3125,0.10009765625,1.73187255859,0.389099121094,-0.42724609375
1534601359.280.96923828125,-0.313720703125,0.107421875,1.70135498047,1.06811523438,-0.473022460938
1534601359.280.97021484375,-0.312255859375,0.10302734375,1.71661376953,0.42724609375,-0.213623046875
1534601359.290.968017578125,-0.31640625,0.101806640625,1.64794921875,0.648498535156,-0.419616699219
1534601359.290.968505859375,-0.313232421875,0.1015625,1.57928466797,0.823974609375,-0.30517578125
1534601359.290.970947265625,-0.314697265625,0.10498046875,1.60980224609,0.953674316406,-0.564575195312
1534601359.30.970947265625,-0.3115234375,0.10107421875,1.67083740234,0.640869140625,-0.617980957031
1534601359.30.96923828125,-0.315185546875,0.102294921875,1.62506103516,0.42724609375,-0.534057617188
1534601359.30.97314453125,-0.3134765625,0.10888671875,1.39617919922,0.770568847656,-0.503540039062
1534601359.310.97119140625,-0.313232421875,0.103515625,1.54113769531,0.640869140625,-0.297546386719
1534601359.310.970458984375,-0.315185546875,0.105224609375,1.57165527344,0.648498535156,-0.373840332031
1534601359.320.96875,-0.31396484375,0.10107421875,1.44958496094,0.556945800781,-0.213623046875
1534601359.320.970458984375,-0.3134765625,0.1025390625,1.64794921875,0.259399414062,-0.267028808594
1534601359.320.968505859375,-0.313720703125,0.0986328125,1.5869140625,0.541687011719,-0.320434570312
1534601359.320.96826171875,-0.314208984375,0.096435546875,1.63269042969,0.770568847656,-0.236511230469
1534601359.330.971923828125,-0.316162109375,0.104248046875,1.45721435547,0.663757324219,-0.358581542969
1534601359.330.972412109375,-0.316650390625,0.106689453125,1.51062011719,0.404357910156,-0.152587890625
1534601359.330.968017578125,-0.313720703125,0.1025390625,1.48010253906,0.648498535156,-0.152587890625
1534601359.330.9697265625,-0.31689453125,0.098876953125,1.59454345703,0.419616699219,-0.495910644531
1534601359.340.9716796875,-0.31494140625,0.1044921875,1.66320800781,0.732421875,-0.328063964844
1534601359.340.96875,-0.317626953125,0.103759765625,1.59454345703,0.167846679688,-0.686645507812
1534601359.340.968017578125,-0.31201171875,0.10205078125,1.50299072266,0.572204589844,-0.350952148438
1534601359.350.966796875,-0.316162109375,0.102783203125,1.81579589844,0.541687011719,-0.251770019531
1534601359.350.9697265625,-0.318115234375,0.107177734375,1.46484375,0.785827636719,-0.389099121094
1534601359.350.968017578125,-0.3154296875,0.099609375,1.57165527344,0.42724609375,-0.717163085938
1534601359.360.970947265625,-0.316162109375,0.102294921875,1.62506103516,0.442504882812,-0.267028808594
1534601359.360.96875,-0.312255859375,0.108642578125,1.57165527344,0.67138671875,-0.579833984375
1534601359.370.973388671875,-0.313720703125,0.102294921875,1.52587890625,0.526428222656,-0.335693359375
1534601359.370.96435546875,-0.31494140625,0.101318359375,1.67083740234,0.350952148438,-0.335693359375
1534601359.370.970947265625,-0.310546875,0.103515625,1.3427734375,0.587463378906,-0.404357910156
1534601359.380.97412109375,-0.315673828125,0.099365234375,1.57928466797,0.251770019531,-0.48828125
1534601359.380.969970703125,-0.314208984375,0.099609375,1.54113769531,0.511169433594,-0.335693359375
1534601359.380.971435546875,-0.31396484375,0.10498046875,1.41143798828,0.770568847656,-0.411987304688
1534601359.380.972412109375,-0.317626953125,0.099853515625,1.73950195312,0.511169433594,-0.167846679688
1534601359.390.96728515625,-0.314453125,0.1025390625,1.53350830078,0.526428222656,-0.450134277344
1534601359.390.967529296875,-0.312744140625,0.104248046875,1.40380859375,0.495910644531,-0.152587890625
1534601359.390.971923828125,-0.311767578125,0.105224609375,1.64794921875,0.54931640625,-0.450134277344
1534601359.390.968994140625,-0.3173828125,0.09814453125,1.48773193359,0.587463378906,-0.625610351562
1534601359.40.96728515625,-0.31494140625,0.1044921875,1.63269042969,0.595092773438,-0.320434570312
1534601359.40.96923828125,-0.312744140625,0.099609375,1.46484375,0.717163085938,-0.602722167969
1534601359.40.966064453125,-0.314453125,0.102783203125,1.53350830078,0.48828125,-0.3662109375
1534601359.410.96728515625,-0.31591796875,0.099365234375,1.53350830078,0.602722167969,-0.335693359375
1534601359.410.97216796875,-0.3125,0.1044921875,1.57165527344,0.709533691406,-0.54931640625
1534601359.410.968505859375,-0.3115234375,0.0966796875,1.59454345703,0.648498535156,-0.442504882812
1534601359.420.968994140625,-0.3154296875,0.09814453125,1.48010253906,0.640869140625,-0.541687011719
1534601359.420.96728515625,-0.31298828125,0.104248046875,1.47247314453,0.556945800781,-0.343322753906
1534601359.420.96875,-0.31591796875,0.1015625,1.44958496094,0.556945800781,-0.297546386719
1534601359.430.97021484375,-0.31298828125,0.10107421875,1.59454345703,0.648498535156,-0.633239746094
1534601359.430.97216796875,-0.316650390625,0.105712890625,1.64794921875,0.747680664062,-0.198364257812
1534601359.430.96923828125,-0.314453125,0.09716796875,1.59454345703,0.564575195312,-0.404357910156
1534601359.440.971435546875,-0.3134765625,0.099853515625,1.40380859375,0.480651855469,-0.465393066406
1534601359.440.97021484375,-0.310302734375,0.1005859375,1.74713134766,0.640869140625,-0.404357910156
1534601359.440.96826171875,-0.312744140625,0.101318359375,1.40380859375,0.625610351562,-0.419616699219
1534601359.450.971923828125,-0.3154296875,0.10986328125,1.62506103516,0.587463378906,-0.358581542969
1534601359.450.969482421875,-0.315185546875,0.1103515625,1.60980224609,0.434875488281,-0.411987304688
1534601359.450.967041015625,-0.3154296875,0.10400390625,1.65557861328,0.755310058594,-0.556945800781
1534601359.460.971435546875,-0.31689453125,0.0966796875,1.69372558594,0.91552734375,-0.30517578125
1534601359.460.97265625,-0.309326171875,0.1005859375,1.67083740234,0.442504882812,-0.3662109375
1534601359.460.969970703125,-0.315185546875,0.10546875,1.48773193359,0.656127929688,-0.320434570312
1534601359.470.970458984375,-0.315185546875,0.099365234375,1.64794921875,0.42724609375,-0.465393066406
1534601359.470.967529296875,-0.314697265625,0.103759765625,1.51824951172,0.221252441406,-0.42724609375
1534601359.470.96533203125,-0.315673828125,0.1064453125,1.43432617188,0.816345214844,-0.343322753906
1534601359.480.96826171875,-0.314453125,0.0986328125,1.46484375,0.251770019531,-0.419616699219
1534601359.480.96728515625,-0.315673828125,0.10546875,1.60980224609,0.778198242188,-0.465393066406
1534601359.480.9697265625,-0.310302734375,0.1015625,1.48773193359,0.541687011719,-0.480651855469
1534601359.480.96923828125,-0.31494140625,0.103515625,1.91497802734,0.534057617188,-0.221252441406
1534601359.490.968505859375,-0.31591796875,0.1025390625,1.60980224609,0.694274902344,-0.350952148438
1534601359.490.96533203125,-0.315185546875,0.1015625,1.57165527344,0.755310058594,-0.511169433594
1534601359.50.968994140625,-0.317138671875,0.103515625,1.82342529297,0.48828125,-0.335693359375
1534601359.50.9677734375,-0.3154296875,0.10009765625,1.54113769531,0.473022460938,-0.251770019531
1534601359.510.969970703125,-0.315673828125,0.1015625,1.5869140625,0.42724609375,-0.633239746094
1534601359.510.971435546875,-0.320556640625,0.098876953125,1.73950195312,0.656127929688,-0.404357910156
1534601359.510.970703125,-0.31640625,0.10205078125,1.38854980469,0.48828125,-0.495910644531
1534601359.510.966064453125,-0.31689453125,0.102294921875,1.60217285156,0.801086425781,-0.282287597656
1534601359.520.96875,-0.3134765625,0.1015625,1.54113769531,0.541687011719,-0.389099121094
1534601359.520.971435546875,-0.316162109375,0.09912109375,1.68609619141,0.587463378906,-0.350952148438
1534601359.520.969970703125,-0.313720703125,0.103759765625,1.23596191406,0.389099121094,-0.442504882812
1534601359.530.971923828125,-0.31396484375,0.098876953125,1.53350830078,0.541687011719,-0.587463378906
1534601359.530.9716796875,-0.312744140625,0.10693359375,1.5869140625,0.526428222656,-0.556945800781
1534601359.530.96875,-0.316162109375,0.106201171875,1.51824951172,0.648498535156,-0.373840332031
1534601359.530.968505859375,-0.31640625,0.099853515625,1.50299072266,0.526428222656,-0.572204589844
1534601359.540.96630859375,-0.318115234375,0.1015625,1.26647949219,0.686645507812,-0.656127929688
1534601359.540.96728515625,-0.314697265625,0.0986328125,1.43432617188,0.541687011719,-0.267028808594
1534601359.540.96728515625,-0.313720703125,0.100830078125,1.60217285156,0.625610351562,-0.526428222656
1534601359.550.971435546875,-0.3173828125,0.099365234375,1.51062011719,0.732421875,-0.373840332031
1534601359.550.969482421875,-0.3125,0.100830078125,1.41143798828,0.740051269531,-0.564575195312
1534601359.550.970947265625,-0.315673828125,0.102783203125,1.55639648438,0.404357910156,-0.312805175781
1534601359.560.96875,-0.31298828125,0.100341796875,1.49536132812,0.785827636719,-0.411987304688
1534601359.560.970947265625,-0.31201171875,0.10302734375,1.67083740234,0.465393066406,-0.42724609375
1534601359.570.967041015625,-0.316162109375,0.097900390625,1.51824951172,0.404357910156,-0.389099121094
1534601359.570.96826171875,-0.31591796875,0.098876953125,1.54113769531,0.648498535156,-0.244140625
1534601359.570.970458984375,-0.30908203125,0.101806640625,1.56402587891,0.617980957031,-0.259399414062
1534601359.570.966064453125,-0.313232421875,0.103515625,1.44958496094,0.679016113281,-0.48828125
1534601359.580.96630859375,-0.316162109375,0.104736328125,1.59454345703,0.587463378906,-0.579833984375
1534601359.580.96630859375,-0.310546875,0.1025390625,1.31988525391,0.518798828125,-0.312805175781
1534601359.590.96923828125,-0.3125,0.10400390625,1.39617919922,0.54931640625,-0.320434570312
1534601359.590.968994140625,-0.314697265625,0.103271484375,1.8310546875,0.602722167969,-0.30517578125
1534601359.590.970947265625,-0.3125,0.099853515625,1.41143798828,0.534057617188,-0.358581542969
1534601359.60.968994140625,-0.31494140625,0.10400390625,1.43432617188,0.42724609375,-0.54931640625
1534601359.60.968017578125,-0.317138671875,0.099609375,1.54113769531,0.6103515625,-0.389099121094
1534601359.60.9716796875,-0.313232421875,0.09912109375,1.50299072266,0.465393066406,-0.450134277344
1534601359.610.96923828125,-0.31787109375,0.103271484375,1.42669677734,0.67138671875,-0.3662109375
1534601359.610.97216796875,-0.312744140625,0.099853515625,1.90734863281,0.48828125,-0.556945800781
1534601359.610.968017578125,-0.312744140625,0.104736328125,1.28173828125,0.930786132812,-0.350952148438
1534601359.620.968505859375,-0.31689453125,0.099609375,1.55639648438,0.518798828125,-0.389099121094
1534601359.620.96533203125,-0.316162109375,0.103759765625,1.63269042969,0.663757324219,-0.556945800781
1534601359.620.966796875,-0.319580078125,0.095458984375,1.52587890625,0.694274902344,-0.404357910156
1534601359.630.9677734375,-0.31494140625,0.106201171875,1.43432617188,0.54931640625,-0.442504882812
1534601359.630.96728515625,-0.318359375,0.1025390625,1.60217285156,0.91552734375,-0.282287597656
1534601359.630.96875,-0.316650390625,0.104736328125,1.61743164062,0.556945800781,-0.221252441406
1534601359.630.970947265625,-0.316162109375,0.102783203125,1.60980224609,0.541687011719,-0.358581542969
1534601359.640.969482421875,-0.3134765625,0.1025390625,1.64794921875,0.556945800781,-0.419616699219
1534601359.640.9677734375,-0.315185546875,0.093994140625,1.60217285156,0.534057617188,-0.434875488281
1534601359.650.96728515625,-0.317626953125,0.10107421875,1.43432617188,0.823974609375,-0.30517578125
1534601359.650.97216796875,-0.315673828125,0.100830078125,1.59454345703,0.679016113281,-0.457763671875
1534601359.660.96337890625,-0.3125,0.1044921875,1.45721435547,0.617980957031,-0.396728515625
1534601359.660.97021484375,-0.315185546875,0.109619140625,1.68609619141,0.923156738281,-0.381469726562
1534601359.660.97265625,-0.311767578125,0.09765625,1.48010253906,0.442504882812,-0.328063964844
1534601359.660.97265625,-0.313720703125,0.106201171875,1.41906738281,0.801086425781,-0.244140625
1534601359.670.9677734375,-0.316162109375,0.102294921875,1.61743164062,0.48828125,-0.633239746094
1534601359.670.96875,-0.31591796875,0.099853515625,1.53350830078,0.48828125,-0.373840332031
1534601359.670.9677734375,-0.3115234375,0.098876953125,1.70135498047,0.579833984375,-0.663757324219
1534601359.670.970458984375,-0.314697265625,0.101806640625,1.44958496094,0.534057617188,-0.3662109375
1534601359.680.969970703125,-0.314208984375,0.102294921875,1.77764892578,0.67138671875,-0.289916992188
1534601359.680.97119140625,-0.31201171875,0.101806640625,1.54113769531,0.556945800781,-0.358581542969
1534601359.680.966064453125,-0.31201171875,0.099853515625,1.63269042969,0.48828125,-0.495910644531
1534601359.690.966796875,-0.31103515625,0.10498046875,1.31225585938,0.587463378906,-0.411987304688
1534601359.690.96923828125,-0.31103515625,0.106201171875,1.40380859375,0.480651855469,-0.518798828125
1534601359.690.968505859375,-0.3154296875,0.102294921875,1.69372558594,0.679016113281,-0.434875488281
1534601359.70.97119140625,-0.31201171875,0.10400390625,1.72424316406,0.579833984375,-0.129699707031
1534601359.70.972900390625,-0.3134765625,0.103759765625,1.60980224609,0.503540039062,-0.282287597656
1534601359.70.962158203125,-0.31640625,0.09814453125,1.54876708984,0.564575195312,-0.297546386719
1534601359.710.97216796875,-0.315185546875,0.101806640625,1.5869140625,0.8544921875,-0.518798828125
1534601359.710.969482421875,-0.31298828125,0.10205078125,1.25885009766,0.701904296875,-0.503540039062
1534601359.710.970947265625,-0.314697265625,0.10205078125,1.50299072266,0.381469726562,-0.595092773438
1534601359.720.968017578125,-0.315185546875,0.09521484375,1.48773193359,0.518798828125,-0.396728515625
1534601359.720.969970703125,-0.32080078125,0.101318359375,1.67083740234,0.686645507812,-0.656127929688
1534601359.730.9677734375,-0.312744140625,0.10107421875,1.71661376953,0.404357910156,-0.686645507812
1534601359.730.97216796875,-0.310791015625,0.10302734375,1.54876708984,0.740051269531,-0.328063964844
1534601359.730.96728515625,-0.3154296875,0.097900390625,1.45721435547,0.579833984375,-0.3662109375
1534601359.730.96826171875,-0.312744140625,0.099853515625,1.70135498047,0.457763671875,-0.381469726562
1534601359.740.969482421875,-0.3125,0.100830078125,1.60217285156,0.473022460938,-0.404357910156
1534601359.740.966796875,-0.31640625,0.100830078125,1.81579589844,0.801086425781,-0.511169433594
1534601359.740.96728515625,-0.3125,0.10107421875,1.43432617188,0.67138671875,-0.54931640625
1534601359.740.96728515625,-0.315185546875,0.10302734375,1.5869140625,0.404357910156,-0.541687011719
1534601359.750.968505859375,-0.31298828125,0.09765625,1.54113769531,0.6103515625,-0.175476074219
1534601359.750.971435546875,-0.31298828125,0.104248046875,1.52587890625,0.457763671875,-0.389099121094
1534601359.750.971923828125,-0.3173828125,0.101806640625,1.52587890625,0.717163085938,-0.236511230469
1534601359.760.972900390625,-0.314453125,0.097412109375,1.53350830078,0.778198242188,-0.450134277344
1534601359.760.97021484375,-0.31396484375,0.100830078125,1.5869140625,0.602722167969,-0.419616699219
1534601359.760.969970703125,-0.312744140625,0.10498046875,1.62506103516,0.503540039062,-0.282287597656
1534601359.770.970947265625,-0.314208984375,0.10693359375,1.66320800781,0.54931640625,-0.373840332031
1534601359.770.970947265625,-0.31494140625,0.10400390625,1.64031982422,0.717163085938,-0.473022460938
1534601359.780.967529296875,-0.31787109375,0.104736328125,1.65557861328,0.595092773438,-0.457763671875
1534601359.780.971435546875,-0.317626953125,0.101318359375,1.56402587891,0.640869140625,-0.259399414062
1534601359.780.967529296875,-0.314208984375,0.103759765625,1.46484375,0.801086425781,-0.373840332031
1534601359.790.96630859375,-0.31396484375,0.097900390625,1.68609619141,0.495910644531,-0.335693359375
1534601359.80.966064453125,-0.312744140625,0.099853515625,1.48773193359,0.564575195312,-0.3662109375
1534601359.80.971435546875,-0.312744140625,0.1015625,1.40380859375,0.511169433594,-0.0534057617188
1534601359.80.969482421875,-0.314697265625,0.1015625,1.57928466797,0.6103515625,-0.6103515625
1534601359.810.96728515625,-0.310791015625,0.09912109375,1.62506103516,0.633239746094,-0.396728515625
1534601359.810.9697265625,-0.31298828125,0.097900390625,1.74713134766,0.724792480469,-0.495910644531
1534601359.810.96875,-0.3125,0.1025390625,1.5869140625,0.450134277344,-0.328063964844
1534601359.810.970947265625,-0.31396484375,0.10107421875,1.69372558594,0.709533691406,-0.259399414062
1534601359.820.966552734375,-0.315185546875,0.102783203125,1.708984375,0.747680664062,-0.3662109375
1534601359.820.968505859375,-0.31201171875,0.107177734375,1.46484375,0.511169433594,-0.30517578125
1534601359.820.96826171875,-0.30859375,0.107421875,1.5869140625,0.595092773438,-0.411987304688
1534601359.830.966064453125,-0.31396484375,0.10546875,1.44195556641,0.419616699219,-0.312805175781
1534601359.830.969970703125,-0.31689453125,0.101806640625,1.57165527344,0.717163085938,-0.289916992188
1534601359.830.96923828125,-0.316162109375,0.103515625,1.54113769531,0.404357910156,-0.350952148438
1534601359.840.968017578125,-0.31787109375,0.1005859375,1.22833251953,0.404357910156,-0.42724609375
1534601359.840.966064453125,-0.315673828125,0.098388671875,1.44195556641,0.457763671875,-0.54931640625
1534601359.840.970703125,-0.315673828125,0.096923828125,1.47247314453,0.625610351562,-0.457763671875
1534601359.850.9658203125,-0.318603515625,0.10302734375,1.57928466797,0.511169433594,-0.48828125
1534601359.850.972900390625,-0.3154296875,0.100341796875,1.50299072266,0.579833984375,-0.48828125
1534601359.850.967529296875,-0.314208984375,0.1015625,1.60217285156,0.42724609375,-0.343322753906
1534601359.860.96826171875,-0.316162109375,0.101806640625,1.35040283203,0.747680664062,-0.205993652344
1534601359.860.968994140625,-0.3154296875,0.1005859375,1.88446044922,0.67138671875,-0.205993652344
1534601359.860.9677734375,-0.31494140625,0.09814453125,1.41906738281,0.389099121094,-0.473022460938
1534601359.870.97412109375,-0.318359375,0.09765625,1.90734863281,0.656127929688,-0.541687011719
1534601359.870.96826171875,-0.3154296875,0.108154296875,1.49536132812,0.770568847656,-0.404357910156
1534601359.880.968017578125,-0.31640625,0.09912109375,1.19781494141,0.740051269531,-0.48828125
1534601359.880.968994140625,-0.318115234375,0.101318359375,1.75476074219,0.595092773438,-0.732421875
1534601359.880.96728515625,-0.31787109375,0.1064453125,1.59454345703,0.6103515625,-0.473022460938
1534601359.890.96728515625,-0.307861328125,0.095947265625,1.60217285156,0.511169433594,-0.381469726562
1534601359.890.967529296875,-0.314208984375,0.104248046875,1.65557861328,0.473022460938,-0.465393066406
1534601359.890.966552734375,-0.311767578125,0.1044921875,1.61743164062,0.778198242188,-0.450134277344
1534601359.90.968994140625,-0.3173828125,0.101318359375,1.44958496094,0.595092773438,-0.320434570312
1534601359.90.96728515625,-0.316162109375,0.10205078125,1.32751464844,0.404357910156,0.0686645507812
1534601359.910.9677734375,-0.31396484375,0.103515625,1.57165527344,0.67138671875,-0.518798828125
1534601359.910.970458984375,-0.31396484375,0.10888671875,1.62506103516,0.518798828125,-0.259399414062
1534601359.910.966552734375,-0.310302734375,0.103759765625,1.38092041016,0.633239746094,-0.42724609375
1534601359.920.970947265625,-0.314697265625,0.099365234375,1.55639648438,0.495910644531,-0.411987304688
1534601359.920.9677734375,-0.314208984375,0.095458984375,1.67846679688,0.762939453125,-0.236511230469
1534601359.920.971435546875,-0.31689453125,0.104248046875,1.62506103516,0.450134277344,-0.350952148438
1534601359.920.96630859375,-0.31494140625,0.106201171875,1.57928466797,0.747680664062,-0.48828125
1534601359.930.970947265625,-0.316650390625,0.099853515625,1.66320800781,0.442504882812,-0.343322753906
1534601359.930.974365234375,-0.314208984375,0.099365234375,1.63269042969,0.79345703125,-0.480651855469
1534601359.930.97021484375,-0.316162109375,0.098876953125,1.60980224609,0.617980957031,-0.320434570312
1534601359.930.96630859375,-0.313720703125,0.104248046875,1.64031982422,0.579833984375,-0.396728515625
1534601359.940.96923828125,-0.31689453125,0.10400390625,1.80053710938,0.801086425781,-0.434875488281
1534601359.950.970703125,-0.31494140625,0.096435546875,1.67846679688,0.465393066406,-0.350952148438
1534601359.950.966796875,-0.316650390625,0.103515625,1.42669677734,0.48828125,-0.442504882812
1534601359.950.968505859375,-0.314697265625,0.10009765625,1.70135498047,0.633239746094,-0.3662109375
1534601359.960.969970703125,-0.314697265625,0.100830078125,1.41143798828,0.740051269531,-0.267028808594
1534601359.960.966796875,-0.31689453125,0.1025390625,1.67846679688,0.541687011719,-0.297546386719
1534601359.960.969970703125,-0.31884765625,0.101318359375,1.59454345703,0.6103515625,-0.755310058594
1534601359.960.96875,-0.313232421875,0.10400390625,1.47247314453,0.42724609375,-0.396728515625
1534601359.970.96630859375,-0.313232421875,0.10107421875,1.61743164062,0.503540039062,-0.3662109375
1534601359.970.970458984375,-0.314208984375,0.095703125,1.60217285156,0.762939453125,-0.3662109375
1534601359.970.970703125,-0.316650390625,0.09814453125,1.39617919922,0.518798828125,-0.335693359375
1534601359.970.972900390625,-0.31591796875,0.101318359375,1.59454345703,0.679016113281,-0.518798828125
1534601359.980.9677734375,-0.313720703125,0.10888671875,1.57165527344,0.801086425781,-0.389099121094
1534601359.980.96826171875,-0.313720703125,0.10205078125,1.51062011719,0.79345703125,-0.289916992188
1534601359.980.97119140625,-0.318603515625,0.100830078125,1.40380859375,0.518798828125,-0.282287597656
1534601359.990.967529296875,-0.31591796875,0.100830078125,1.31988525391,0.457763671875,-0.625610351562
1534601359.990.971923828125,-0.31640625,0.09765625,1.60980224609,0.701904296875,-0.3662109375
1534601359.990.970947265625,-0.316162109375,0.104248046875,1.60217285156,0.457763671875,-0.358581542969
1534601360.00.970703125,-0.316162109375,0.095947265625,1.72424316406,0.732421875,-0.434875488281
1534601360.00.966552734375,-0.31787109375,0.101318359375,1.61743164062,0.6103515625,-0.396728515625
1534601360.00.97265625,-0.31640625,0.0986328125,1.75476074219,0.534057617188,-0.297546386719
1534601360.010.970703125,-0.3154296875,0.103271484375,1.53350830078,0.503540039062,-0.404357910156
1534601360.010.970947265625,-0.314697265625,0.099853515625,1.67846679688,0.663757324219,-0.0686645507812
1534601360.010.970458984375,-0.310791015625,0.101318359375,1.33514404297,0.640869140625,-0.267028808594
1534601360.020.96875,-0.31982421875,0.095458984375,1.62506103516,0.602722167969,-0.503540039062
1534601360.020.9677734375,-0.31591796875,0.10205078125,1.41143798828,0.465393066406,-0.320434570312
1534601360.030.968994140625,-0.3115234375,0.10302734375,1.54113769531,0.724792480469,-0.091552734375
1534601360.030.968994140625,-0.311767578125,0.1015625,1.54113769531,0.511169433594,-0.350952148438
1534601360.030.973388671875,-0.315673828125,0.10302734375,1.74713134766,0.625610351562,-0.434875488281
1534601360.040.96826171875,-0.311279296875,0.099853515625,1.85394287109,0.503540039062,-0.495910644531
1534601360.040.968994140625,-0.31591796875,0.106689453125,1.35803222656,0.877380371094,-0.236511230469
1534601360.040.968017578125,-0.316162109375,0.10009765625,1.66320800781,0.755310058594,-0.297546386719
1534601360.050.9677734375,-0.31494140625,0.1005859375,1.5869140625,0.595092773438,-0.564575195312
1534601360.050.9658203125,-0.316650390625,0.106201171875,1.48010253906,0.831604003906,-0.1220703125
1534601360.050.968017578125,-0.313232421875,0.101806640625,1.5869140625,0.434875488281,-0.724792480469
1534601360.060.968994140625,-0.317626953125,0.103271484375,1.37329101562,0.595092773438,-0.404357910156
1534601360.060.97216796875,-0.31640625,0.102294921875,1.55639648438,0.79345703125,-0.289916992188
1534601360.060.9716796875,-0.314697265625,0.101806640625,1.47247314453,0.434875488281,-0.48828125
1534601360.070.967041015625,-0.31591796875,0.1083984375,1.41906738281,0.480651855469,-0.244140625
1534601360.070.968017578125,-0.311767578125,0.101806640625,1.57928466797,0.694274902344,-0.648498535156
1534601360.070.968505859375,-0.315673828125,0.10205078125,1.46484375,0.564575195312,-0.511169433594
1534601360.080.96630859375,-0.3154296875,0.10009765625,1.31988525391,0.312805175781,-0.18310546875
1534601360.080.97216796875,-0.312255859375,0.111328125,1.48010253906,0.724792480469,-0.160217285156
1534601360.090.96923828125,-0.31591796875,0.100341796875,1.37329101562,0.633239746094,-0.503540039062
1534601360.090.970703125,-0.31884765625,0.103515625,1.46484375,0.633239746094,-0.419616699219
1534601360.10.972900390625,-0.3173828125,0.101318359375,1.59454345703,0.48828125,-0.389099121094
1534601360.10.96875,-0.319580078125,0.105712890625,1.57165527344,0.67138671875,-0.411987304688
1534601360.10.96630859375,-0.314208984375,0.10498046875,1.72424316406,0.686645507812,-0.350952148438
1534601360.10.9716796875,-0.31689453125,0.107666015625,1.66320800781,0.411987304688,-0.396728515625
1534601360.110.970703125,-0.314453125,0.099609375,1.38854980469,0.755310058594,-0.556945800781
1534601360.110.97119140625,-0.317626953125,0.10205078125,1.23596191406,0.518798828125,-0.228881835938
1534601360.110.967529296875,-0.315185546875,0.1005859375,1.708984375,0.724792480469,-0.740051269531
1534601360.110.97119140625,-0.318115234375,0.098876953125,1.54876708984,0.862121582031,-0.42724609375
1534601360.120.9716796875,-0.313720703125,0.095458984375,1.60980224609,0.511169433594,-0.511169433594
1534601360.120.9716796875,-0.317626953125,0.105224609375,1.46484375,0.900268554688,-0.373840332031
1534601360.120.969482421875,-0.315185546875,0.1005859375,1.61743164062,0.404357910156,-0.465393066406
1534601360.130.96630859375,-0.312744140625,0.098876953125,1.57928466797,0.503540039062,-0.450134277344
1534601360.130.972900390625,-0.3173828125,0.103515625,1.51062011719,0.709533691406,-0.320434570312
1534601360.130.968505859375,-0.310302734375,0.106689453125,1.32751464844,0.511169433594,-0.320434570312
1534601360.140.968994140625,-0.3125,0.106201171875,1.62506103516,0.6103515625,-0.411987304688
1534601360.140.969482421875,-0.3125,0.104736328125,1.72424316406,0.495910644531,-0.442504882812
1534601360.140.969482421875,-0.312255859375,0.10205078125,1.31225585938,0.450134277344,-0.1220703125
1534601360.150.96533203125,-0.31396484375,0.10302734375,1.40380859375,0.465393066406,-0.541687011719
1534601360.150.970458984375,-0.312255859375,0.10595703125,1.67846679688,0.656127929688,-0.457763671875
1534601360.150.96826171875,-0.3173828125,0.096923828125,1.31225585938,0.564575195312,-0.556945800781
1534601360.160.97216796875,-0.31494140625,0.10498046875,1.67846679688,0.663757324219,-0.18310546875
1534601360.160.97314453125,-0.31689453125,0.100830078125,1.69372558594,0.701904296875,-0.228881835938
1534601360.170.96923828125,-0.314697265625,0.10009765625,1.28173828125,0.572204589844,-0.465393066406
1534601360.170.970947265625,-0.313232421875,0.102783203125,1.50299072266,0.633239746094,-0.465393066406
1534601360.170.96923828125,-0.31787109375,0.10546875,1.5869140625,0.381469726562,-0.297546386719
1534601360.180.96923828125,-0.3154296875,0.1015625,1.54113769531,0.778198242188,-0.320434570312
1534601360.180.970703125,-0.319580078125,0.100341796875,1.57165527344,0.3662109375,-0.457763671875
1534601360.190.96923828125,-0.31689453125,0.10546875,1.5869140625,0.450134277344,-0.0686645507812
1534601360.190.970947265625,-0.318603515625,0.102294921875,1.41906738281,0.48828125,-0.450134277344
1534601360.190.96826171875,-0.31640625,0.10791015625,1.78527832031,0.564575195312,-0.465393066406
1534601360.20.965087890625,-0.3173828125,0.1005859375,1.56402587891,0.648498535156,-0.442504882812
1534601360.20.9677734375,-0.313232421875,0.102783203125,1.55639648438,0.656127929688,-0.30517578125
1534601360.20.968017578125,-0.31201171875,0.103515625,1.69372558594,0.541687011719,-0.450134277344
1534601360.210.969970703125,-0.31640625,0.0986328125,1.65557861328,0.320434570312,-0.343322753906
1534601360.210.9697265625,-0.313232421875,0.100830078125,1.64794921875,0.617980957031,-0.48828125
1534601360.210.9755859375,-0.315185546875,0.105224609375,1.73950195312,0.511169433594,-0.358581542969
1534601360.210.968505859375,-0.3154296875,0.102783203125,1.44195556641,0.495910644531,-0.556945800781
1534601360.220.970947265625,-0.314697265625,0.102294921875,1.68609619141,0.846862792969,-0.30517578125
1534601360.220.97021484375,-0.3134765625,0.10205078125,1.54113769531,0.6103515625,-0.213623046875
1534601360.220.970458984375,-0.314208984375,0.099853515625,1.41143798828,0.572204589844,-0.442504882812
1534601360.220.970947265625,-0.315185546875,0.09716796875,1.67846679688,0.602722167969,-0.328063964844
1534601360.230.96875,-0.318359375,0.101806640625,1.67083740234,0.556945800781,-0.343322753906
1534601360.230.969482421875,-0.315185546875,0.097900390625,1.20544433594,0.473022460938,-0.42724609375
1534601360.240.9716796875,-0.31396484375,0.10498046875,1.37329101562,0.595092773438,-0.358581542969
1534601360.240.969482421875,-0.31640625,0.0966796875,1.73187255859,0.869750976562,-0.404357910156
1534601360.250.96630859375,-0.315673828125,0.1005859375,1.52587890625,0.67138671875,-0.640869140625
1534601360.250.967529296875,-0.315185546875,0.10009765625,1.35803222656,0.709533691406,-0.343322753906
1534601360.250.963134765625,-0.312744140625,0.103271484375,1.60980224609,0.869750976562,-0.495910644531
1534601360.250.966796875,-0.3173828125,0.099365234375,1.80053710938,0.579833984375,-0.54931640625
1534601360.260.966796875,-0.31494140625,0.103515625,1.40380859375,0.389099121094,-0.312805175781
1534601360.260.969482421875,-0.31640625,0.100830078125,1.45721435547,0.8544921875,-0.663757324219
1534601360.260.969482421875,-0.315185546875,0.102294921875,1.25122070312,0.442504882812,-0.450134277344
1534601360.270.96728515625,-0.314697265625,0.108642578125,1.52587890625,0.747680664062,-0.312805175781
1534601360.270.966796875,-0.313232421875,0.1005859375,1.68609619141,0.526428222656,-0.297546386719
1534601360.270.9638671875,-0.31640625,0.099853515625,1.57928466797,0.579833984375,-0.54931640625
1534601360.270.96435546875,-0.318359375,0.095458984375,1.71661376953,0.320434570312,-0.511169433594
1534601360.280.968017578125,-0.313720703125,0.101318359375,1.44195556641,0.846862792969,-0.503540039062
1534601360.280.964599609375,-0.31494140625,0.096923828125,1.62506103516,0.572204589844,-0.0762939453125
1534601360.280.972412109375,-0.31298828125,0.0947265625,1.57165527344,0.572204589844,-0.236511230469
1534601360.280.971435546875,-0.315673828125,0.09716796875,1.35803222656,0.6103515625,-0.335693359375
1534601360.290.97021484375,-0.31640625,0.1015625,1.41143798828,0.534057617188,-0.457763671875
1534601360.290.965087890625,-0.314453125,0.100341796875,1.62506103516,0.411987304688,-0.396728515625
1534601360.290.97314453125,-0.316650390625,0.1015625,1.39617919922,0.556945800781,-0.373840332031
1534601360.30.9658203125,-0.317626953125,0.1064453125,1.60217285156,0.762939453125,-0.244140625
1534601360.30.965087890625,-0.313720703125,0.107177734375,1.66320800781,0.419616699219,-0.289916992188
1534601360.310.9658203125,-0.31494140625,0.1044921875,1.65557861328,0.541687011719,-0.389099121094
1534601360.310.96875,-0.313232421875,0.10595703125,1.43432617188,0.679016113281,-0.42724609375
1534601360.310.974365234375,-0.314697265625,0.101806640625,1.60217285156,0.564575195312,-0.236511230469
1534601360.320.970947265625,-0.313232421875,0.1064453125,1.64031982422,0.48828125,-0.541687011719
1534601360.320.968505859375,-0.3134765625,0.10205078125,1.41143798828,0.663757324219,-0.480651855469
1534601360.320.967529296875,-0.316162109375,0.10546875,1.38092041016,0.396728515625,-0.541687011719
1534601360.330.9697265625,-0.310302734375,0.10009765625,1.51824951172,0.350952148438,-0.480651855469
1534601360.330.97021484375,-0.316650390625,0.102783203125,1.51824951172,0.732421875,-0.244140625
1534601360.330.971435546875,-0.31396484375,0.099853515625,1.50299072266,0.396728515625,-0.411987304688
1534601360.330.96484375,-0.3173828125,0.10546875,1.48773193359,0.595092773438,-0.274658203125
1534601360.340.96826171875,-0.319580078125,0.101318359375,1.76239013672,0.625610351562,-0.480651855469
1534601360.340.97216796875,-0.315673828125,0.1015625,1.67846679688,0.556945800781,-0.419616699219
1534601360.340.9716796875,-0.316650390625,0.105224609375,1.86157226562,0.54931640625,-0.526428222656
1534601360.340.966552734375,-0.314697265625,0.10595703125,1.3427734375,0.495910644531,-0.457763671875
1534601360.350.964599609375,-0.314697265625,0.102783203125,1.52587890625,0.503540039062,-0.328063964844
1534601360.350.9736328125,-0.31640625,0.103515625,1.64794921875,0.6103515625,-0.625610351562
1534601360.350.969482421875,-0.31396484375,0.105712890625,1.53350830078,0.717163085938,-0.282287597656
1534601360.360.97216796875,-0.31689453125,0.09619140625,1.33514404297,0.54931640625,-0.48828125
1534601360.360.971923828125,-0.313720703125,0.101318359375,1.59454345703,0.686645507812,-0.480651855469
1534601360.360.968994140625,-0.31494140625,0.103515625,1.78527832031,0.457763671875,-0.48828125
1534601360.370.9716796875,-0.3134765625,0.1044921875,1.54876708984,0.450134277344,-0.465393066406
1534601360.370.967041015625,-0.31494140625,0.09619140625,1.60980224609,0.54931640625,-0.541687011719
1534601360.380.96728515625,-0.31640625,0.1015625,1.51824951172,0.770568847656,-0.396728515625
1534601360.380.97021484375,-0.314697265625,0.10400390625,1.73187255859,0.6103515625,-0.518798828125
1534601360.390.967529296875,-0.31689453125,0.101806640625,1.41906738281,0.686645507812,-0.419616699219
1534601360.390.971923828125,-0.313720703125,0.104248046875,1.31988525391,0.556945800781,-0.3662109375
1534601360.390.967529296875,-0.3173828125,0.103271484375,1.48773193359,0.701904296875,-0.358581542969
1534601360.390.966796875,-0.31689453125,0.100830078125,1.52587890625,0.328063964844,-0.42724609375
1534601360.40.967041015625,-0.31591796875,0.10009765625,1.47247314453,0.877380371094,-0.3662109375
1534601360.40.96875,-0.31640625,0.1025390625,1.60980224609,0.617980957031,-0.404357910156
1534601360.40.970947265625,-0.318115234375,0.101806640625,1.31225585938,0.572204589844,-0.251770019531
1534601360.410.9658203125,-0.317626953125,0.1005859375,1.57928466797,0.30517578125,-0.42724609375
1534601360.410.9697265625,-0.317138671875,0.10595703125,1.77001953125,0.808715820312,-0.160217285156
1534601360.410.97119140625,-0.316162109375,0.103515625,1.76239013672,0.808715820312,-0.129699707031
1534601360.410.96630859375,-0.31689453125,0.1025390625,1.50299072266,0.442504882812,-0.3662109375
1534601360.420.969970703125,-0.317138671875,0.101318359375,1.63269042969,0.396728515625,-0.358581542969
1534601360.420.96875,-0.314208984375,0.09912109375,1.57928466797,0.411987304688,-0.236511230469
1534601360.420.969482421875,-0.31591796875,0.101318359375,1.48010253906,0.816345214844,-0.251770019531
1534601360.430.96923828125,-0.314208984375,0.099853515625,1.57165527344,0.686645507812,-0.297546386719
1534601360.430.9697265625,-0.318359375,0.097412109375,1.51824951172,0.694274902344,-0.526428222656
1534601360.440.972900390625,-0.314697265625,0.1015625,1.64794921875,0.648498535156,-0.411987304688
1534601360.440.968017578125,-0.316162109375,0.098876953125,1.33514404297,0.465393066406,-0.526428222656
1534601360.440.967041015625,-0.318115234375,0.1015625,1.52587890625,0.640869140625,-0.411987304688
1534601360.450.966796875,-0.31494140625,0.102294921875,1.5869140625,0.579833984375,-0.221252441406
1534601360.450.969482421875,-0.320068359375,0.1025390625,1.56402587891,0.587463378906,-0.617980957031
1534601360.450.967041015625,-0.316162109375,0.097900390625,1.54876708984,0.442504882812,-0.228881835938
1534601360.460.968505859375,-0.31591796875,0.104736328125,1.60980224609,0.381469726562,-0.526428222656
1534601360.460.96923828125,-0.3125,0.098876953125,1.53350830078,0.495910644531,-0.389099121094
1534601360.460.970947265625,-0.315185546875,0.101806640625,1.60217285156,0.67138671875,-0.289916992188
1534601360.470.9677734375,-0.31396484375,0.098876953125,1.56402587891,0.48828125,-0.335693359375
1534601360.470.969970703125,-0.31591796875,0.102294921875,1.61743164062,0.625610351562,-0.396728515625
1534601360.470.97216796875,-0.316162109375,0.1005859375,1.64031982422,0.686645507812,-0.419616699219
1534601360.480.967041015625,-0.315673828125,0.100830078125,1.36566162109,0.602722167969,-0.419616699219
1534601360.480.96728515625,-0.315185546875,0.106689453125,1.43432617188,0.335693359375,-0.419616699219
1534601360.490.967529296875,-0.314453125,0.099853515625,1.67083740234,0.442504882812,-0.656127929688
1534601360.490.96826171875,-0.31982421875,0.10107421875,1.48010253906,0.778198242188,-0.640869140625
1534601360.490.96875,-0.314697265625,0.103515625,1.5869140625,0.511169433594,-0.633239746094
1534601360.50.971435546875,-0.312255859375,0.100830078125,1.47247314453,0.633239746094,-0.221252441406
1534601360.50.96923828125,-0.315673828125,0.101806640625,1.32751464844,0.503540039062,-0.640869140625
1534601360.50.9697265625,-0.314453125,0.0966796875,1.55639648438,0.633239746094,-0.350952148438
1534601360.50.969970703125,-0.31103515625,0.102783203125,1.40380859375,0.450134277344,-0.465393066406
1534601360.510.970947265625,-0.31689453125,0.10400390625,1.71661376953,0.465393066406,-0.434875488281
1534601360.510.97021484375,-0.3134765625,0.102294921875,1.47247314453,0.389099121094,-0.572204589844
1534601360.510.972412109375,-0.316650390625,0.10009765625,1.54876708984,0.694274902344,-0.297546386719
1534601360.520.970947265625,-0.31640625,0.107421875,1.47247314453,0.640869140625,-0.480651855469
1534601360.520.971435546875,-0.314697265625,0.0986328125,1.38854980469,0.511169433594,-0.328063964844
1534601360.530.966552734375,-0.315185546875,0.09765625,1.44195556641,0.656127929688,-0.320434570312
1534601360.540.968994140625,-0.31640625,0.09375,1.54876708984,0.526428222656,-0.503540039062
1534601360.540.967041015625,-0.31787109375,0.105224609375,1.45721435547,0.480651855469,-0.328063964844
1534601360.540.96875,-0.315185546875,0.104248046875,1.52587890625,0.808715820312,-0.343322753906
1534601360.540.966796875,-0.31640625,0.1025390625,1.55639648438,0.724792480469,-0.434875488281
1534601360.550.96728515625,-0.31298828125,0.10400390625,1.54876708984,0.572204589844,-0.167846679688
1534601360.550.97021484375,-0.3134765625,0.103759765625,1.5869140625,0.328063964844,-0.518798828125
1534601360.550.96875,-0.314208984375,0.104248046875,1.62506103516,0.686645507812,-0.274658203125
1534601360.560.9697265625,-0.313232421875,0.107666015625,1.47247314453,0.640869140625,-0.259399414062
1534601360.560.96435546875,-0.3154296875,0.101318359375,1.52587890625,0.511169433594,-0.640869140625
1534601360.560.973876953125,-0.312744140625,0.100830078125,1.64031982422,0.572204589844,-0.434875488281
1534601360.560.966552734375,-0.313232421875,0.104736328125,1.48773193359,0.732421875,-0.320434570312
1534601360.570.97021484375,-0.3154296875,0.105712890625,1.55639648438,0.465393066406,-0.518798828125
1534601360.570.97314453125,-0.3154296875,0.10791015625,1.66320800781,0.8544921875,-0.381469726562
1534601360.570.96875,-0.312744140625,0.10009765625,1.51062011719,0.404357910156,-0.526428222656
1534601360.580.9697265625,-0.311279296875,0.09912109375,1.38854980469,0.633239746094,-0.267028808594
1534601360.580.9677734375,-0.31298828125,0.100830078125,1.86157226562,0.411987304688,-0.267028808594
1534601360.580.97021484375,-0.31494140625,0.099365234375,1.51062011719,0.67138671875,-0.480651855469
1534601360.590.965576171875,-0.314697265625,0.10400390625,1.76239013672,0.595092773438,-0.556945800781
1534601360.590.967041015625,-0.3154296875,0.104248046875,1.50299072266,0.534057617188,-0.465393066406
1534601360.590.969482421875,-0.31396484375,0.105224609375,1.71661376953,0.572204589844,-0.114440917969
1534601360.60.967041015625,-0.31884765625,0.09716796875,1.64794921875,0.503540039062,-0.328063964844
1534601360.60.96826171875,-0.315673828125,0.106689453125,1.42669677734,0.663757324219,-0.289916992188
1534601360.610.970947265625,-0.312255859375,0.1044921875,1.69372558594,0.091552734375,-0.244140625
1534601360.610.968017578125,-0.3154296875,0.103515625,1.81579589844,0.564575195312,-0.267028808594
1534601360.610.970703125,-0.317138671875,0.1015625,1.52587890625,0.732421875,-0.465393066406
1534601360.620.96875,-0.314208984375,0.1025390625,1.73187255859,0.625610351562,-0.289916992188
1534601360.620.968017578125,-0.3134765625,0.099609375,1.46484375,0.694274902344,-0.480651855469
1534601360.620.966796875,-0.31396484375,0.10498046875,1.59454345703,0.465393066406,-0.457763671875
1534601360.630.96875,-0.314453125,0.099609375,1.60217285156,0.511169433594,-0.251770019531
1534601360.630.96630859375,-0.313720703125,0.1015625,1.57928466797,0.755310058594,-0.297546386719
1534601360.630.96484375,-0.317626953125,0.097412109375,1.50299072266,0.564575195312,-0.465393066406
1534601360.640.967529296875,-0.315673828125,0.097900390625,1.32751464844,0.564575195312,-0.511169433594
1534601360.640.970458984375,-0.31591796875,0.1044921875,1.67083740234,0.503540039062,-0.473022460938
1534601360.640.96630859375,-0.314453125,0.100341796875,1.50299072266,0.579833984375,-0.419616699219
1534601360.640.968994140625,-0.315185546875,0.10400390625,1.53350830078,0.556945800781,-0.328063964844
1534601360.650.965576171875,-0.3125,0.104736328125,1.41143798828,0.465393066406,-0.236511230469
1534601360.650.9677734375,-0.31982421875,0.10302734375,1.68609619141,0.625610351562,-0.411987304688
1534601360.650.967041015625,-0.314697265625,0.098388671875,1.35803222656,0.473022460938,-0.419616699219
1534601360.660.96826171875,-0.313232421875,0.1025390625,1.5869140625,0.442504882812,-0.534057617188
1534601360.660.973876953125,-0.3115234375,0.09814453125,1.68609619141,0.625610351562,-0.404357910156
1534601360.670.9658203125,-0.31201171875,0.101806640625,1.60217285156,0.556945800781,-0.343322753906
1534601360.680.97216796875,-0.315673828125,0.100830078125,1.48773193359,0.633239746094,-0.320434570312
1534601360.680.969970703125,-0.315673828125,0.1083984375,1.55639648438,0.747680664062,-0.3662109375
1534601360.680.96826171875,-0.313720703125,0.097900390625,1.64794921875,0.534057617188,-0.656127929688
1534601360.680.971923828125,-0.314697265625,0.098876953125,1.38092041016,0.724792480469,-0.297546386719
1534601360.690.968505859375,-0.315185546875,0.104248046875,1.51824951172,0.686645507812,-0.244140625
1534601360.690.9658203125,-0.31201171875,0.09765625,1.41143798828,0.709533691406,-0.267028808594
1534601360.690.969970703125,-0.316650390625,0.10400390625,1.64794921875,0.656127929688,-0.343322753906
1534601360.690.9697265625,-0.316162109375,0.100830078125,1.41906738281,0.633239746094,-0.358581542969
1534601360.70.96923828125,-0.31201171875,0.105224609375,1.70135498047,0.709533691406,-0.503540039062
1534601360.70.968505859375,-0.3134765625,0.10205078125,1.44958496094,0.694274902344,-0.335693359375
1534601360.70.97265625,-0.315185546875,0.10400390625,1.54113769531,0.602722167969,-0.381469726562
1534601360.710.96728515625,-0.310791015625,0.100830078125,1.28173828125,0.6103515625,-0.526428222656
1534601360.710.96728515625,-0.314697265625,0.100341796875,1.69372558594,0.587463378906,-0.404357910156
1534601360.710.972900390625,-0.311767578125,0.103271484375,1.46484375,0.534057617188,-0.373840332031
1534601360.720.970703125,-0.31591796875,0.103759765625,1.50299072266,0.724792480469,-0.450134277344
1534601360.720.972900390625,-0.314697265625,0.100830078125,1.35803222656,0.30517578125,-0.267028808594
1534601360.720.96923828125,-0.31494140625,0.101318359375,1.53350830078,0.396728515625,-0.328063964844
1534601360.730.968505859375,-0.313232421875,0.104736328125,1.38092041016,0.663757324219,-0.328063964844
1534601360.730.967529296875,-0.311767578125,0.10791015625,1.64794921875,0.434875488281,-0.30517578125
1534601360.730.970458984375,-0.31689453125,0.101806640625,1.708984375,0.770568847656,-0.381469726562
1534601360.740.974609375,-0.314453125,0.103759765625,1.54876708984,0.755310058594,-0.175476074219
1534601360.740.971923828125,-0.310302734375,0.102294921875,1.46484375,0.686645507812,-0.3662109375
1534601360.740.968505859375,-0.3115234375,0.099609375,1.64794921875,0.640869140625,-0.6103515625
1534601360.750.97119140625,-0.315673828125,0.1064453125,1.54113769531,0.450134277344,-0.465393066406
1534601360.750.9677734375,-0.315673828125,0.108642578125,1.51824951172,0.79345703125,-0.480651855469
1534601360.750.967041015625,-0.314208984375,0.105712890625,1.5869140625,0.709533691406,-0.465393066406
1534601360.760.968994140625,-0.31591796875,0.105712890625,1.49536132812,0.312805175781,-0.251770019531
1534601360.760.97119140625,-0.3134765625,0.10302734375,1.88446044922,0.709533691406,-0.381469726562
1534601360.760.971435546875,-0.314697265625,0.103515625,1.70135498047,0.602722167969,-0.396728515625
1534601360.770.9697265625,-0.311767578125,0.106689453125,1.51062011719,0.694274902344,-0.396728515625
1534601360.770.966064453125,-0.3193359375,0.1015625,1.47247314453,0.534057617188,-0.297546386719
1534601360.770.963623046875,-0.311767578125,0.10302734375,1.39617919922,0.595092773438,-0.572204589844
1534601360.780.966064453125,-0.311767578125,0.10595703125,1.70135498047,0.640869140625,-0.480651855469
1534601360.780.972412109375,-0.311767578125,0.100830078125,1.61743164062,0.717163085938,-0.350952148438
1534601360.790.971923828125,-0.317626953125,0.105712890625,1.45721435547,0.587463378906,-0.221252441406
1534601360.790.96826171875,-0.319091796875,0.099365234375,1.55639648438,0.625610351562,-0.572204589844
1534601360.790.968505859375,-0.31591796875,0.103515625,1.61743164062,0.396728515625,-0.381469726562
1534601360.790.970458984375,-0.31640625,0.1015625,1.40380859375,0.694274902344,-0.267028808594
1534601360.80.97265625,-0.313720703125,0.099609375,1.66320800781,0.602722167969,-0.404357910156
1534601360.80.968017578125,-0.31201171875,0.097900390625,1.57165527344,0.8544921875,-0.534057617188
1534601360.80.968994140625,-0.31396484375,0.10107421875,1.45721435547,0.381469726562,-0.244140625
1534601360.80.968017578125,-0.31494140625,0.09814453125,1.45721435547,0.556945800781,-0.411987304688
1534601360.810.96826171875,-0.31591796875,0.100830078125,1.73950195312,0.595092773438,-0.450134277344
1534601360.810.971923828125,-0.317138671875,0.102783203125,1.45721435547,0.762939453125,-0.320434570312
1534601360.810.968505859375,-0.311767578125,0.10498046875,1.62506103516,0.831604003906,-0.450134277344
1534601360.820.970947265625,-0.316162109375,0.09521484375,1.50299072266,0.411987304688,-0.457763671875
1534601360.830.96923828125,-0.3134765625,0.097900390625,1.65557861328,0.358581542969,-0.465393066406
1534601360.830.9677734375,-0.314208984375,0.108642578125,1.54113769531,0.717163085938,-0.282287597656
1534601360.830.9697265625,-0.312744140625,0.099609375,1.5869140625,0.42724609375,-0.419616699219
1534601360.840.968017578125,-0.3125,0.106689453125,1.53350830078,0.663757324219,-0.587463378906
1534601360.840.973876953125,-0.316650390625,0.106689453125,1.62506103516,0.495910644531,-0.312805175781
1534601360.840.9677734375,-0.313720703125,0.10205078125,1.55639648438,0.518798828125,-0.267028808594
1534601360.840.97119140625,-0.312744140625,0.10595703125,1.62506103516,0.572204589844,-0.152587890625
1534601360.850.96484375,-0.312744140625,0.101806640625,1.73187255859,0.54931640625,-0.617980957031
1534601360.850.9716796875,-0.319091796875,0.10205078125,1.79290771484,0.724792480469,-0.442504882812
1534601360.850.966796875,-0.3173828125,0.09716796875,1.54876708984,0.389099121094,-0.251770019531
1534601360.860.97021484375,-0.318115234375,0.100341796875,1.66320800781,0.770568847656,-0.396728515625
1534601360.860.969482421875,-0.315185546875,0.10107421875,1.60217285156,0.732421875,-0.457763671875
1534601360.860.96826171875,-0.312744140625,0.103515625,1.53350830078,0.541687011719,-0.465393066406
1534601360.870.969482421875,-0.31201171875,0.097412109375,1.56402587891,0.648498535156,-0.205993652344
1534601360.870.969970703125,-0.311279296875,0.105712890625,1.52587890625,0.6103515625,-0.579833984375
1534601360.870.96826171875,-0.31396484375,0.09814453125,1.60980224609,0.892639160156,-0.465393066406
1534601360.880.9697265625,-0.31396484375,0.1015625,1.41143798828,0.511169433594,-0.389099121094
1534601360.880.969482421875,-0.315673828125,0.09814453125,1.60217285156,0.534057617188,-0.251770019531
1534601360.880.967041015625,-0.310791015625,0.105712890625,1.40380859375,0.579833984375,-0.457763671875
1534601360.890.969482421875,-0.31103515625,0.099853515625,1.49536132812,0.656127929688,-0.236511230469
1534601360.890.96826171875,-0.3115234375,0.10302734375,1.71661376953,0.724792480469,-0.411987304688
1534601360.90.971435546875,-0.312744140625,0.1025390625,1.25122070312,0.411987304688,-0.480651855469
1534601360.90.971435546875,-0.312255859375,0.102783203125,1.708984375,0.709533691406,-0.244140625
1534601360.90.968505859375,-0.3125,0.10107421875,1.44195556641,0.419616699219,-0.411987304688
1534601360.910.96923828125,-0.315185546875,0.106689453125,1.52587890625,0.755310058594,-0.289916992188
1534601360.910.96630859375,-0.31494140625,0.1064453125,1.49536132812,0.656127929688,-0.205993652344
1534601360.910.96875,-0.3125,0.103515625,1.80053710938,0.297546386719,-0.373840332031
1534601360.920.968505859375,-0.314453125,0.10107421875,1.60980224609,0.732421875,-0.663757324219
1534601360.920.96826171875,-0.31103515625,0.1025390625,1.43432617188,0.404357910156,-0.312805175781
1534601360.920.967529296875,-0.312255859375,0.097900390625,1.55639648438,0.396728515625,-0.556945800781
1534601360.930.968505859375,-0.316650390625,0.10400390625,1.61743164062,0.602722167969,-0.328063964844
1534601360.930.9697265625,-0.3125,0.10302734375,1.43432617188,0.213623046875,-0.48828125
1534601360.930.9697265625,-0.313720703125,0.10009765625,1.5869140625,0.473022460938,-0.495910644531
1534601360.940.97119140625,-0.309326171875,0.1005859375,1.50299072266,0.808715820312,-0.259399414062
1534601360.940.96826171875,-0.31689453125,0.103271484375,1.62506103516,0.442504882812,-0.434875488281
1534601360.940.97216796875,-0.3173828125,0.100341796875,1.71661376953,0.534057617188,-0.282287597656
1534601360.940.97216796875,-0.315673828125,0.1025390625,1.80816650391,0.778198242188,-0.0457763671875
1534601360.950.972412109375,-0.313720703125,0.103515625,1.45721435547,0.67138671875,-0.465393066406
1534601360.950.96484375,-0.312744140625,0.09765625,1.26647949219,0.419616699219,-0.259399414062
1534601360.960.970703125,-0.31591796875,0.107177734375,1.74713134766,0.67138671875,-0.534057617188
1534601360.960.972412109375,-0.317626953125,0.105224609375,1.59454345703,0.625610351562,-0.267028808594
1534601360.970.966552734375,-0.3154296875,0.104248046875,1.35040283203,0.556945800781,-0.518798828125
1534601360.970.974365234375,-0.313720703125,0.10546875,1.64031982422,0.54931640625,-0.297546386719
1534601360.970.969482421875,-0.31591796875,0.105224609375,1.5869140625,0.8544921875,-0.289916992188
1534601360.970.96826171875,-0.315185546875,0.103271484375,1.48773193359,0.556945800781,-0.480651855469
1534601360.980.968017578125,-0.317626953125,0.099609375,1.77764892578,0.350952148438,-0.267028808594
1534601360.980.96533203125,-0.3115234375,0.093505859375,1.39617919922,0.839233398438,-0.42724609375
1534601360.980.969970703125,-0.31103515625,0.1015625,1.44958496094,0.473022460938,-0.289916992188
1534601360.990.965087890625,-0.31298828125,0.09716796875,1.44195556641,0.534057617188,-0.381469726562
1534601360.990.96533203125,-0.31298828125,0.097900390625,1.5869140625,0.679016113281,-0.419616699219
1534601360.990.9677734375,-0.319580078125,0.09912109375,1.67846679688,0.526428222656,-0.267028808594
1534601360.990.9658203125,-0.31494140625,0.10107421875,1.31225585938,0.778198242188,-0.236511230469
1534601361.00.969482421875,-0.31640625,0.10302734375,1.3427734375,0.679016113281,-0.465393066406
1534601361.00.967041015625,-0.316162109375,0.104736328125,1.63269042969,0.717163085938,-0.358581542969
1534601361.00.97412109375,-0.313232421875,0.09375,1.67083740234,0.701904296875,-0.373840332031
1534601361.010.9677734375,-0.313232421875,0.104736328125,1.45721435547,0.808715820312,-0.656127929688
1534601361.010.97021484375,-0.31787109375,0.102783203125,1.59454345703,0.595092773438,-0.259399414062
1534601361.010.967041015625,-0.314208984375,0.102783203125,1.70135498047,0.8544921875,-0.274658203125
1534601361.020.96728515625,-0.3154296875,0.101806640625,1.73187255859,0.381469726562,-0.640869140625
1534601361.020.969482421875,-0.31689453125,0.1025390625,1.59454345703,0.602722167969,-0.205993652344
1534601361.020.967041015625,-0.316650390625,0.110595703125,1.45721435547,0.633239746094,-0.213623046875
1534601361.030.97265625,-0.315185546875,0.09814453125,1.3427734375,0.480651855469,-0.30517578125
1534601361.030.9697265625,-0.31689453125,0.097412109375,1.73187255859,0.67138671875,-0.389099121094
1534601361.040.970947265625,-0.315673828125,0.09326171875,1.35803222656,0.564575195312,-0.289916992188
1534601361.040.970703125,-0.310302734375,0.10498046875,1.73187255859,0.724792480469,-0.442504882812
1534601361.040.97265625,-0.312255859375,0.103759765625,1.64794921875,0.633239746094,-0.213623046875
1534601361.050.9658203125,-0.31640625,0.1005859375,1.57928466797,0.747680664062,-0.396728515625
1534601361.050.969970703125,-0.315673828125,0.1025390625,1.52587890625,0.79345703125,-0.495910644531
1534601361.050.970947265625,-0.3154296875,0.10009765625,1.64794921875,0.663757324219,-0.48828125
1534601361.060.96728515625,-0.314208984375,0.1025390625,1.57165527344,0.808715820312,-0.511169433594
1534601361.060.96826171875,-0.31591796875,0.099853515625,1.69372558594,0.6103515625,-0.579833984375
1534601361.060.967041015625,-0.314208984375,0.106689453125,1.68609619141,0.617980957031,-0.572204589844
1534601361.070.971435546875,-0.31689453125,0.104248046875,1.50299072266,0.541687011719,-0.411987304688
1534601361.070.973388671875,-0.318359375,0.100341796875,1.48010253906,0.663757324219,-0.48828125
1534601361.080.968505859375,-0.314453125,0.102783203125,1.48773193359,0.709533691406,-0.617980957031
1534601361.080.974853515625,-0.3173828125,0.101318359375,1.80816650391,0.808715820312,-0.289916992188
1534601361.080.97021484375,-0.315185546875,0.10205078125,1.56402587891,0.457763671875,-0.335693359375
1534601361.090.968017578125,-0.31982421875,0.10498046875,1.44958496094,0.564575195312,-0.343322753906
