CSV format: Accelerometer x value, acclerometer y value, accelerometer z value, gyroscope x value, gyroscope y value, gyroscope z value
Sample frequency: 100Hz
1534594340.480.935546875,-0.400146484375,-0.079833984375,1.32751464844,0.411987304688,-0.54931640625
1534594340.490.935791015625,-0.398681640625,-0.083740234375,1.22833251953,0.343322753906,-0.617980957031
1534594340.490.934326171875,-0.402099609375,-0.083740234375,1.51824951172,0.419616699219,-0.541687011719
1534594340.50.93701171875,-0.397216796875,-0.083740234375,1.85394287109,0.694274902344,-0.534057617188
1534594340.50.9375,-0.396728515625,-0.080322265625,1.47247314453,0.724792480469,-0.473022460938
1534594340.50.93603515625,-0.4013671875,-0.090087890625,1.63269042969,0.694274902344,-0.167846679688
1534594340.510.935791015625,-0.395751953125,-0.08203125,1.67846679688,0.656127929688,-0.381469726562
1534594340.510.9384765625,-0.39990234375,-0.08154296875,1.65557861328,0.221252441406,-0.0381469726562
1534594340.510.93603515625,-0.403076171875,-0.082275390625,1.31988525391,0.625610351562,-0.350952148438
1534594340.510.936767578125,-0.401123046875,-0.075439453125,1.50299072266,0.602722167969,-0.42724609375
1534594340.520.937255859375,-0.398681640625,-0.08203125,1.24359130859,0.686645507812,-0.335693359375
1534594340.520.93798828125,-0.401123046875,-0.081787109375,1.65557861328,0.495910644531,-0.503540039062
1534594340.520.935546875,-0.397216796875,-0.080078125,1.5869140625,0.389099121094,-0.419616699219
1534594340.520.937744140625,-0.399169921875,-0.083740234375,1.69372558594,0.770568847656,-0.404357910156
1534594340.530.935546875,-0.404296875,-0.077392578125,1.30462646484,0.503540039062,-0.633239746094
1534594340.530.934814453125,-0.3994140625,-0.078857421875,1.55639648438,0.465393066406,-0.152587890625
1534594340.530.93994140625,-0.40380859375,-0.083251953125,1.37329101562,0.518798828125,-0.3662109375
1534594340.540.933837890625,-0.397216796875,-0.086181640625,1.48773193359,0.633239746094,-0.54931640625
1534594340.540.93505859375,-0.4013671875,-0.079833984375,1.38092041016,0.473022460938,-0.48828125
1534594340.540.934814453125,-0.400634765625,-0.082763671875,1.47247314453,0.617980957031,-0.48828125
1534594340.540.937255859375,-0.3984375,-0.0791015625,1.59454345703,0.442504882812,-0.587463378906
1534594340.550.9365234375,-0.400634765625,-0.08544921875,1.77001953125,0.236511230469,-0.42724609375
1534594340.550.935546875,-0.400390625,-0.079833984375,1.61743164062,0.511169433594,-0.175476074219
1534594340.560.935302734375,-0.40380859375,-0.075927734375,1.62506103516,0.518798828125,-0.442504882812
1534594340.560.933349609375,-0.399658203125,-0.08935546875,1.56402587891,0.724792480469,-0.419616699219
1534594340.560.93408203125,-0.400146484375,-0.080322265625,1.70135498047,0.625610351562,-0.350952148438
1534594340.570.934814453125,-0.40185546875,-0.0771484375,1.64031982422,0.579833984375,-0.236511230469
1534594340.570.936279296875,-0.400634765625,-0.08447265625,1.47247314453,0.579833984375,-0.30517578125
1534594340.570.93505859375,-0.398681640625,-0.080322265625,1.22833251953,0.633239746094,-0.602722167969
1534594340.580.93310546875,-0.402587890625,-0.08642578125,1.48010253906,0.396728515625,-0.602722167969
1534594340.580.935791015625,-0.40087890625,-0.080810546875,1.5869140625,0.54931640625,-0.442504882812
1534594340.590.9384765625,-0.396484375,-0.08203125,1.55639648438,0.587463378906,-0.503540039062
1534594340.590.9384765625,-0.40283203125,-0.084228515625,1.45721435547,0.511169433594,-0.572204589844
1534594340.590.9365234375,-0.40234375,-0.0791015625,1.61743164062,0.175476074219,-0.602722167969
1534594340.60.939453125,-0.395751953125,-0.0791015625,1.47247314453,0.556945800781,-0.205993652344
1534594340.60.93603515625,-0.40234375,-0.087890625,1.44195556641,0.419616699219,-0.617980957031
1534594340.60.935546875,-0.402099609375,-0.08740234375,1.44958496094,0.511169433594,-0.3662109375
1534594340.610.939208984375,-0.399658203125,-0.080078125,1.36566162109,0.503540039062,-0.274658203125
1534594340.610.936767578125,-0.400146484375,-0.085205078125,1.76239013672,0.396728515625,-0.213623046875
1534594340.620.93896484375,-0.398681640625,-0.08203125,1.70135498047,0.801086425781,-0.434875488281
1534594340.620.932861328125,-0.397216796875,-0.08056640625,1.24359130859,0.717163085938,-0.289916992188
1534594340.620.938720703125,-0.401611328125,-0.07861328125,1.70135498047,0.54931640625,-0.480651855469
1534594340.620.93798828125,-0.398193359375,-0.0791015625,1.55639648438,0.541687011719,-0.297546386719
1534594340.630.9375,-0.399658203125,-0.078125,1.60980224609,0.541687011719,-0.465393066406
1534594340.630.93603515625,-0.400390625,-0.084228515625,1.708984375,0.534057617188,-0.3662109375
1534594340.630.93603515625,-0.400390625,-0.076416015625,1.68609619141,0.556945800781,-0.503540039062
1534594340.640.93798828125,-0.3994140625,-0.074462890625,1.33514404297,0.518798828125,-0.236511230469
1534594340.650.935791015625,-0.400146484375,-0.077880859375,1.39617919922,0.389099121094,-0.534057617188
1534594340.650.935302734375,-0.40087890625,-0.082763671875,1.56402587891,0.3662109375,-0.457763671875
1534594340.650.93701171875,-0.397705078125,-0.0810546875,1.46484375,0.663757324219,-0.389099121094
1534594340.660.9384765625,-0.3994140625,-0.084716796875,1.60980224609,0.526428222656,-0.473022460938
1534594340.660.93408203125,-0.400634765625,-0.078369140625,1.50299072266,0.755310058594,-0.419616699219
1534594340.660.938232421875,-0.402099609375,-0.081298828125,1.50299072266,0.434875488281,-0.30517578125
1534594340.670.936767578125,-0.400146484375,-0.084716796875,1.51062011719,0.3662109375,-0.213623046875
1534594340.670.935302734375,-0.396240234375,-0.07470703125,1.51824951172,0.564575195312,-0.495910644531
1534594340.670.9375,-0.40185546875,-0.080078125,1.60980224609,0.6103515625,-0.289916992188
1534594340.670.934326171875,-0.40380859375,-0.075927734375,1.57165527344,0.503540039062,-0.297546386719
1534594340.680.936767578125,-0.399658203125,-0.076416015625,1.48773193359,0.579833984375,-0.503540039062
1534594340.680.932373046875,-0.398193359375,-0.0810546875,1.38854980469,0.289916992188,-0.106811523438
1534594340.680.935302734375,-0.400634765625,-0.08203125,1.51062011719,0.48828125,-0.297546386719
1534594340.690.9326171875,-0.401611328125,-0.08056640625,1.44195556641,0.587463378906,-0.511169433594
1534594340.690.940185546875,-0.40185546875,-0.077880859375,1.35040283203,0.373840332031,-0.381469726562
1534594340.690.9375,-0.400634765625,-0.076904296875,1.708984375,0.190734863281,-0.495910644531
1534594340.70.935302734375,-0.40185546875,-0.077880859375,1.56402587891,0.579833984375,-0.6103515625
1534594340.70.930419921875,-0.400634765625,-0.082763671875,1.43432617188,0.648498535156,-0.495910644531
1534594340.70.937744140625,-0.403564453125,-0.082763671875,1.55639648438,0.572204589844,-0.297546386719
1534594340.710.93505859375,-0.403564453125,-0.0859375,1.35803222656,0.495910644531,-0.473022460938
1534594340.710.9365234375,-0.3984375,-0.084716796875,1.54113769531,0.587463378906,-0.518798828125
1534594340.720.9375,-0.401611328125,-0.08154296875,1.84631347656,0.694274902344,-0.328063964844
1534594340.720.93603515625,-0.40087890625,-0.084716796875,1.57165527344,0.389099121094,-0.457763671875
1534594340.720.939208984375,-0.3994140625,-0.075439453125,1.50299072266,0.465393066406,-0.167846679688
1534594340.730.936767578125,-0.39599609375,-0.0859375,1.70135498047,0.419616699219,-0.205993652344
1534594340.730.935302734375,-0.399658203125,-0.0849609375,1.953125,0.640869140625,-0.18310546875
1534594340.740.938720703125,-0.402099609375,-0.0771484375,1.44958496094,0.404357910156,-0.518798828125
1534594340.740.93603515625,-0.39990234375,-0.08154296875,1.31988525391,0.480651855469,-0.404357910156
1534594340.740.9365234375,-0.39892578125,-0.08154296875,1.47247314453,0.701904296875,-0.328063964844
1534594340.740.93505859375,-0.40478515625,-0.090087890625,1.55639648438,0.595092773438,-0.343322753906
1534594340.750.9375,-0.3974609375,-0.075927734375,1.69372558594,0.434875488281,-0.389099121094
1534594340.750.9345703125,-0.402099609375,-0.07958984375,1.27410888672,0.564575195312,-0.701904296875
1534594340.750.93701171875,-0.3984375,-0.082763671875,1.48773193359,0.564575195312,-0.534057617188
1534594340.760.936767578125,-0.401611328125,-0.082763671875,1.24359130859,0.48828125,-0.503540039062
1534594340.760.93701171875,-0.399658203125,-0.079345703125,1.02233886719,0.335693359375,-0.480651855469
1534594340.770.934814453125,-0.399169921875,-0.087158203125,1.54113769531,0.747680664062,-0.297546386719
1534594340.770.936279296875,-0.399169921875,-0.07763671875,1.53350830078,0.503540039062,-0.358581542969
1534594340.770.93505859375,-0.399169921875,-0.084716796875,1.41906738281,0.42724609375,-0.312805175781
1534594340.780.938720703125,-0.399658203125,-0.07958984375,1.69372558594,0.54931640625,-0.236511230469
1534594340.780.93505859375,-0.401611328125,-0.080078125,1.48773193359,0.846862792969,-0.42724609375
1534594340.780.937744140625,-0.40185546875,-0.078857421875,1.64031982422,0.762939453125,-0.259399414062
1534594340.790.935546875,-0.399658203125,-0.078125,1.57165527344,0.343322753906,-0.274658203125
1534594340.790.935546875,-0.3984375,-0.080810546875,1.59454345703,0.900268554688,-0.457763671875
1534594340.80.931884765625,-0.402587890625,-0.0771484375,1.41143798828,0.54931640625,-0.595092773438
1534594340.80.936767578125,-0.40185546875,-0.088134765625,1.30462646484,0.717163085938,-0.534057617188
1534594340.80.9384765625,-0.404296875,-0.079833984375,1.52587890625,0.564575195312,-0.564575195312
1534594340.810.936767578125,-0.399169921875,-0.07763671875,1.25122070312,0.541687011719,-0.717163085938
1534594340.810.940673828125,-0.399658203125,-0.08544921875,1.30462646484,0.396728515625,-0.663757324219
1534594340.810.938720703125,-0.402587890625,-0.080078125,1.62506103516,0.625610351562,-0.259399414062
1534594340.810.93408203125,-0.400634765625,-0.0830078125,1.56402587891,0.457763671875,-0.457763671875
1534594340.820.943359375,-0.39990234375,-0.083984375,1.67083740234,0.587463378906,-0.106811523438
1534594340.820.93212890625,-0.399658203125,-0.084228515625,1.60217285156,0.473022460938,-0.297546386719
1534594340.820.934814453125,-0.398193359375,-0.075927734375,1.48773193359,0.663757324219,-0.297546386719
1534594340.830.935791015625,-0.40283203125,-0.083984375,1.64031982422,0.289916992188,-0.289916992188
1534594340.830.9365234375,-0.40478515625,-0.091796875,1.39617919922,0.511169433594,-0.419616699219
1534594340.830.935546875,-0.399169921875,-0.080078125,1.57165527344,0.587463378906,-0.289916992188
1534594340.840.9375,-0.4033203125,-0.0888671875,1.63269042969,0.541687011719,-0.328063964844
1534594340.840.93505859375,-0.39990234375,-0.08203125,1.35803222656,0.495910644531,-0.434875488281
1534594340.840.935791015625,-0.398193359375,-0.083251953125,1.50299072266,0.48828125,-0.434875488281
1534594340.840.930908203125,-0.401123046875,-0.08154296875,1.19018554688,0.457763671875,-0.30517578125
1534594340.850.93115234375,-0.397705078125,-0.086669921875,1.46484375,0.312805175781,-0.495910644531
1534594340.850.93310546875,-0.399169921875,-0.08056640625,1.56402587891,0.457763671875,-0.381469726562
1534594340.860.9384765625,-0.3994140625,-0.083251953125,1.24359130859,0.297546386719,-0.625610351562
1534594340.860.934814453125,-0.405517578125,-0.07763671875,1.65557861328,0.572204589844,-0.556945800781
1534594340.860.93701171875,-0.39697265625,-0.086669921875,1.45721435547,0.54931640625,-0.656127929688
1534594340.870.935302734375,-0.403076171875,-0.080810546875,1.72424316406,0.648498535156,-0.228881835938
1534594340.870.939697265625,-0.39990234375,-0.080810546875,1.57165527344,0.54931640625,-0.198364257812
1534594340.870.938232421875,-0.400634765625,-0.077392578125,1.63269042969,0.762939453125,-0.251770019531
1534594340.880.933837890625,-0.399658203125,-0.0830078125,1.57165527344,0.656127929688,-0.244140625
1534594340.880.9384765625,-0.39794921875,-0.07958984375,1.53350830078,0.541687011719,-0.442504882812
1534594340.880.935302734375,-0.40185546875,-0.0859375,1.51824951172,0.679016113281,-0.251770019531
1534594340.890.9384765625,-0.40185546875,-0.081787109375,1.79290771484,0.656127929688,-0.381469726562
1534594340.890.93505859375,-0.39794921875,-0.08203125,1.68609619141,0.236511230469,-0.503540039062
1534594340.90.9375,-0.401611328125,-0.08154296875,1.3427734375,0.251770019531,-0.732421875
1534594340.90.935302734375,-0.40625,-0.076904296875,1.36566162109,0.411987304688,-0.503540039062
1534594340.90.935302734375,-0.3974609375,-0.082763671875,1.53350830078,0.42724609375,-0.762939453125
1534594340.910.93310546875,-0.40234375,-0.07763671875,1.37329101562,0.518798828125,-0.442504882812
1534594340.910.936279296875,-0.3974609375,-0.08349609375,1.53350830078,0.320434570312,-0.450134277344
1534594340.910.9365234375,-0.396484375,-0.08544921875,1.59454345703,0.617980957031,-0.541687011719
1534594340.910.934326171875,-0.39794921875,-0.0810546875,1.75476074219,0.732421875,-0.480651855469
1534594340.920.937744140625,-0.40283203125,-0.082275390625,1.63269042969,0.724792480469,-0.160217285156
1534594340.920.939208984375,-0.3984375,-0.086669921875,1.57165527344,0.373840332031,-0.274658203125
1534594340.920.93359375,-0.396484375,-0.073486328125,1.60217285156,0.648498535156,-0.320434570312
1534594340.930.935546875,-0.39794921875,-0.085205078125,1.54113769531,0.633239746094,-0.244140625
1534594340.930.933837890625,-0.400634765625,-0.079345703125,1.53350830078,0.686645507812,-0.411987304688
1534594340.940.932373046875,-0.40185546875,-0.083984375,1.44958496094,0.480651855469,-0.511169433594
1534594340.940.93603515625,-0.3984375,-0.082275390625,1.52587890625,0.617980957031,-0.396728515625
1534594340.950.935791015625,-0.397216796875,-0.07861328125,1.39617919922,0.572204589844,-0.640869140625
1534594340.950.936767578125,-0.400390625,-0.084716796875,1.3427734375,0.236511230469,-0.465393066406
1534594340.950.938720703125,-0.3984375,-0.08203125,1.46484375,0.579833984375,-0.747680664062
1534594340.950.935302734375,-0.403564453125,-0.08056640625,1.42669677734,0.137329101562,-0.434875488281
1534594340.960.939697265625,-0.401611328125,-0.085205078125,1.19018554688,0.312805175781,-0.442504882812
1534594340.960.936767578125,-0.402099609375,-0.076904296875,1.54113769531,0.404357910156,-0.526428222656
1534594340.960.939453125,-0.404052734375,-0.088134765625,1.57165527344,0.709533691406,-0.198364257812
1534594340.970.934814453125,-0.40087890625,-0.081787109375,1.51062011719,0.686645507812,-0.373840332031
1534594340.970.935302734375,-0.39990234375,-0.079833984375,1.65557861328,0.6103515625,-0.312805175781
1534594340.970.93701171875,-0.401611328125,-0.077880859375,1.42669677734,0.335693359375,-0.221252441406
1534594340.980.933837890625,-0.399169921875,-0.081787109375,1.72424316406,0.564575195312,-0.267028808594
1534594340.980.93896484375,-0.396728515625,-0.087890625,1.57165527344,0.42724609375,-0.221252441406
1534594340.980.93701171875,-0.400634765625,-0.08642578125,1.27410888672,0.625610351562,-0.289916992188
1534594340.980.931396484375,-0.40234375,-0.08251953125,1.66320800781,0.54931640625,-0.541687011719
1534594340.990.935302734375,-0.399658203125,-0.0830078125,1.220703125,0.48828125,-0.564575195312
1534594340.990.93310546875,-0.3955078125,-0.0771484375,1.68609619141,0.511169433594,-0.450134277344
1534594340.990.935791015625,-0.401611328125,-0.086669921875,1.51824951172,0.54931640625,-0.503540039062
1534594341.00.938720703125,-0.4033203125,-0.09130859375,1.36566162109,0.251770019531,-0.404357910156
1534594341.00.934326171875,-0.400390625,-0.0810546875,1.60980224609,0.556945800781,-0.434875488281
1534594341.010.937744140625,-0.3994140625,-0.0849609375,1.29699707031,0.541687011719,-0.686645507812
1534594341.010.939453125,-0.39892578125,-0.08056640625,1.29699707031,0.534057617188,-0.442504882812
1534594341.010.93701171875,-0.402099609375,-0.080810546875,1.65557861328,0.724792480469,-0.457763671875
1534594341.020.935302734375,-0.3994140625,-0.083251953125,1.54113769531,0.686645507812,-0.465393066406
1534594341.020.933349609375,-0.406005859375,-0.089599609375,1.42669677734,0.42724609375,-0.343322753906
1534594341.020.920166015625,-0.394287109375,-0.080810546875,2.04467773438,0.663757324219,0.656127929688
1534594341.030.891845703125,-0.379150390625,-0.0888671875,2.54821777344,2.51007080078,2.63977050781
1534594341.030.84228515625,-0.346923828125,-0.079345703125,4.2724609375,3.40270996094,4.60052490234
1534594341.030.877685546875,-0.37158203125,-0.070556640625,4.82940673828,4.10461425781,2.08282470703
1534594341.041.0,-0.43603515625,-0.061767578125,1.80816650391,0.747680664062,-1.79290771484
1534594341.040.999755859375,-0.462158203125,-0.07275390625,-2.84576416016,-3.24249267578,-9.31549072266
1534594341.041.0390625,-0.471923828125,-0.06298828125,-5.45501708984,-6.20269775391,-13.9617919922
1534594341.051.01708984375,-0.449951171875,-0.084228515625,-4.72259521484,-8.08715820312,-14.7399902344
1534594341.051.00952148438,-0.425537109375,-0.105224609375,-5.07354736328,-1.56402587891,-13.9312744141
1534594341.050.980224609375,-0.390869140625,-0.1123046875,-2.41088867188,-1.74713134766,-10.4827880859
1534594341.051.0068359375,-0.40234375,-0.101318359375,-0.846862792969,-0.862121582031,-5.50079345703
1534594341.060.963134765625,-0.366455078125,-0.0966796875,1.27410888672,-0.900268554688,0.091552734375
1534594341.060.94677734375,-0.37451171875,-0.0927734375,3.21960449219,3.02124023438,7.09533691406
1534594341.060.9013671875,-0.362548828125,-0.097412109375,7.05718994141,2.79235839844,12.1459960938
1534594341.070.938232421875,-0.392822265625,-0.093017578125,7.6904296875,5.88989257812,12.6953125
1534594341.070.93896484375,-0.40380859375,-0.09326171875,8.36944580078,5.87463378906,13.4048461914
1534594341.070.958740234375,-0.41357421875,-0.08154296875,6.85882568359,5.52368164062,12.321472168
1534594341.080.9287109375,-0.41162109375,-0.04638671875,3.58581542969,1.03759765625,6.75201416016
1534594341.080.879638671875,-0.3916015625,-0.04638671875,1.19781494141,-0.129699707031,1.39617919922
1534594341.090.8671875,-0.381591796875,-0.060302734375,-0.0152587890625,-0.396728515625,-4.19616699219
1534594341.090.87939453125,-0.386962890625,-0.0625,0.312805175781,-1.70135498047,-5.74493408203
1534594341.090.904541015625,-0.390380859375,-0.064453125,-0.923156738281,-1.11389160156,-6.73675537109
1534594341.10.895751953125,-0.392822265625,-0.0771484375,-1.84631347656,-0.808715820312,-8.61358642578
1534594341.10.916748046875,-0.403564453125,-0.080322265625,-1.5869140625,-3.31115722656,-8.85772705078
1534594341.10.9609375,-0.408447265625,-0.095947265625,-1.80053710938,-1.20544433594,-9.13238525391
1534594341.110.98828125,-0.4189453125,-0.109375,-0.755310058594,-1.0986328125,-8.72802734375
1534594341.110.994140625,-0.4150390625,-0.1015625,-0.274658203125,0.114440917969,-7.4462890625
1534594341.111.02954101562,-0.432373046875,-0.093994140625,-0.694274902344,0.564575195312,-6.62231445312
1534594341.110.992919921875,-0.4130859375,-0.0869140625,0.419616699219,-2.20489501953,-4.10461425781
1534594341.120.99853515625,-0.416748046875,-0.095703125,0.06103515625,0.114440917969,-2.23541259766
1534594341.120.9912109375,-0.414306640625,-0.09375,1.27410888672,0.221252441406,0.625610351562
1534594341.120.9619140625,-0.389892578125,-0.10498046875,4.21142578125,0.358581542969,5.43212890625
1534594341.120.95458984375,-0.378662109375,-0.103271484375,4.45556640625,3.92913818359,8.12530517578
1534594341.130.91796875,-0.38232421875,-0.08984375,6.21795654297,2.9296875,10.383605957
1534594341.130.9248046875,-0.378662109375,-0.08837890625,6.67572021484,3.71551513672,12.1459960938
1534594341.130.906005859375,-0.3828125,-0.07275390625,5.93566894531,4.61578369141,11.3830566406
1534594341.130.888671875,-0.393798828125,-0.0810546875,5.14984130859,3.63922119141,9.68933105469
1534594341.140.89697265625,-0.400634765625,-0.07177734375,3.73840332031,2.03704833984,6.77490234375
1534594341.140.90380859375,-0.407470703125,-0.076904296875,2.63214111328,1.20544433594,2.29644775391
1534594341.140.90478515625,-0.40771484375,-0.0693359375,0.839233398438,0.9765625,-1.04522705078
1534594341.150.90380859375,-0.405517578125,-0.072509765625,0.0381469726562,-0.526428222656,-4.87518310547
1534594341.150.902587890625,-0.395263671875,-0.06640625,-1.60980224609,-1.44195556641,-8.00323486328
1534594341.150.91943359375,-0.399169921875,-0.079345703125,-2.15148925781,-1.75476074219,-10.009765625
1534594341.160.936279296875,-0.405517578125,-0.087646484375,-1.97601318359,-1.90734863281,-10.4904174805
1534594341.160.9638671875,-0.40869140625,-0.088623046875,-1.48773193359,-1.44958496094,-9.78851318359
1534594341.170.9794921875,-0.409912109375,-0.092041015625,-1.19018554688,-1.57165527344,-8.01849365234
1534594341.170.98291015625,-0.407958984375,-0.091796875,-0.244140625,-1.220703125,-4.87518310547
1534594341.170.9794921875,-0.4052734375,-0.0927734375,1.36566162109,0.259399414062,-0.694274902344
1534594341.180.96923828125,-0.393798828125,-0.08935546875,3.13568115234,1.35803222656,3.57055664062
1534594341.180.96044921875,-0.3974609375,-0.088623046875,4.95147705078,2.62451171875,7.75909423828
1534594341.180.943115234375,-0.392578125,-0.081298828125,5.54656982422,2.99072265625,9.96398925781
1534594341.190.918212890625,-0.39013671875,-0.07861328125,5.33294677734,3.08990478516,9.78851318359
1534594341.190.9091796875,-0.39599609375,-0.072021484375,4.66156005859,2.82287597656,7.59124755859
1534594341.190.90771484375,-0.399658203125,-0.06640625,3.65447998047,2.66265869141,5.21850585938
1534594341.20.899169921875,-0.39599609375,-0.067626953125,2.45666503906,1.29699707031,2.36511230469
1534594341.20.897216796875,-0.400634765625,-0.064208984375,1.53350830078,0.404357910156,-0.358581542969
1534594341.20.89697265625,-0.400146484375,-0.066650390625,0.0762939453125,-0.0534057617188,-3.84521484375
1534594341.210.911376953125,-0.406005859375,-0.06787109375,-0.808715820312,-0.495910644531,-5.97381591797
1534594341.210.919921875,-0.39990234375,-0.070556640625,-1.35803222656,-1.07574462891,-7.8125
1534594341.210.9296875,-0.400634765625,-0.071044921875,-1.70135498047,-1.42669677734,-9.18579101562
1534594341.210.94384765625,-0.405029296875,-0.073486328125,-2.31170654297,-1.92260742188,-9.63592529297
1534594341.220.953369140625,-0.40283203125,-0.08203125,-1.60980224609,-2.197265625,-8.79669189453
1534594341.220.963623046875,-0.404296875,-0.092041015625,-1.19781494141,-1.65557861328,-7.43103027344
1534594341.230.967529296875,-0.40087890625,-0.09228515625,1.87683105469,0.297546386719,0.137329101562
1534594341.230.966064453125,-0.392333984375,-0.08740234375,2.75421142578,1.19018554688,2.63214111328
1534594341.230.963623046875,-0.394287109375,-0.095947265625,3.63159179688,1.87683105469,5.05065917969
1534594341.240.956298828125,-0.397216796875,-0.086669921875,4.22668457031,2.197265625,6.7138671875
1534594341.240.943359375,-0.396484375,-0.079345703125,4.48608398438,2.47955322266,7.31658935547
1534594341.240.927490234375,-0.392578125,-0.08203125,4.67681884766,2.64739990234,7.48443603516
1534594341.250.920166015625,-0.39599609375,-0.076171875,4.35638427734,2.25830078125,6.79779052734
1534594341.250.914794921875,-0.397216796875,-0.0771484375,3.87573242188,2.41851806641,5.9814453125
1534594341.250.90185546875,-0.394775390625,-0.076416015625,3.36456298828,2.25830078125,4.40216064453
1534594341.250.903564453125,-0.396240234375,-0.072021484375,2.39562988281,1.67083740234,2.28118896484
1534594341.260.90283203125,-0.395263671875,-0.0712890625,1.56402587891,0.747680664062,-0.091552734375
1534594341.260.908447265625,-0.4033203125,-0.064697265625,0.862121582031,0.06103515625,-2.83050537109
1534594341.260.9111328125,-0.405029296875,-0.070068359375,-0.381469726562,-0.663757324219,-4.68444824219
1534594341.260.92138671875,-0.4033203125,-0.073486328125,-0.701904296875,-0.946044921875,-6.35528564453
1534594341.270.931640625,-0.407958984375,-0.08544921875,-1.15203857422,-1.51824951172,-7.54547119141
1534594341.270.942138671875,-0.406494140625,-0.079833984375,-1.02233886719,-1.38854980469,-7.97271728516
1534594341.270.946044921875,-0.402099609375,-0.083740234375,-0.984191894531,-1.49536132812,-6.75201416016
1534594341.280.9560546875,-0.40234375,-0.088134765625,-0.251770019531,-0.755310058594,-5.19561767578
1534594341.280.960693359375,-0.40283203125,-0.091796875,0.740051269531,-0.312805175781,-2.93731689453
1534594341.280.96240234375,-0.4052734375,-0.090087890625,1.68609619141,0.923156738281,-0.396728515625
1534594341.290.961181640625,-0.401611328125,-0.09521484375,2.60162353516,1.22833251953,2.44140625
1534594341.290.9501953125,-0.3984375,-0.088134765625,3.75366210938,1.69372558594,4.73022460938
1534594341.30.938720703125,-0.398681640625,-0.081298828125,3.85284423828,2.06756591797,5.76019287109
1534594341.30.92529296875,-0.393310546875,-0.08056640625,3.82995605469,2.42614746094,5.56945800781
1534594341.30.9208984375,-0.3955078125,-0.076904296875,3.44085693359,2.02178955078,4.98962402344
1534594341.310.911376953125,-0.3984375,-0.0732421875,2.67791748047,1.71661376953,3.18145751953
1534594341.310.91015625,-0.39697265625,-0.0693359375,2.22778320312,1.12915039062,1.24359130859
1534594341.310.911376953125,-0.40234375,-0.076171875,1.20544433594,0.938415527344,-0.877380371094
1534594341.310.9169921875,-0.40478515625,-0.073974609375,0.656127929688,0.0152587890625,-2.64739990234
1534594341.320.92041015625,-0.401123046875,-0.07568359375,-0.0228881835938,-0.282287597656,-3.79180908203
1534594341.320.9287109375,-0.401123046875,-0.077392578125,-0.129699707031,-0.862121582031,-4.93621826172
1534594341.320.932373046875,-0.404541015625,-0.073974609375,-0.511169433594,-1.04522705078,-6.32476806641
1534594341.330.9345703125,-0.402099609375,-0.0810546875,-0.762939453125,-0.801086425781,-6.24084472656
1534594341.330.94580078125,-0.40478515625,-0.080810546875,-0.503540039062,-0.938415527344,-5.9814453125
1534594341.330.949462890625,-0.40625,-0.0859375,-0.0686645507812,-0.686645507812,-5.06591796875
1534594341.340.956298828125,-0.4013671875,-0.088623046875,0.48828125,-0.335693359375,-3.07464599609
1534594341.340.959716796875,-0.400634765625,-0.09375,1.52587890625,0.343322753906,-0.556945800781
1534594341.340.95556640625,-0.398193359375,-0.086181640625,2.12097167969,0.984191894531,2.08282470703
1534594341.350.94873046875,-0.39501953125,-0.088623046875,3.01361083984,1.38092041016,4.00543212891
1534594341.350.9404296875,-0.394287109375,-0.08056640625,3.34930419922,1.80816650391,4.79888916016
1534594341.350.93310546875,-0.394287109375,-0.08740234375,3.57818603516,2.02178955078,5.05065917969
1534594341.350.93212890625,-0.396240234375,-0.077392578125,3.79943847656,1.708984375,5.08880615234
1534594341.360.927978515625,-0.394775390625,-0.074951171875,3.30352783203,2.10571289062,4.74548339844
1534594341.360.92236328125,-0.3955078125,-0.080322265625,2.83813476562,1.30462646484,3.40270996094
1534594341.360.917236328125,-0.3984375,-0.076171875,2.28881835938,1.36566162109,1.86920166016
1534594341.370.91748046875,-0.40380859375,-0.076904296875,1.78527832031,0.877380371094,0.381469726562
1534594341.370.919921875,-0.403564453125,-0.072021484375,0.862121582031,0.221252441406,-1.91497802734
1534594341.380.9267578125,-0.401611328125,-0.081298828125,-0.587463378906,-0.503540039062,-5.36346435547
1534594341.380.94580078125,-0.404052734375,-0.084228515625,-0.320434570312,-0.709533691406,-5.18035888672
1534594341.390.94677734375,-0.40185546875,-0.078125,0.114440917969,-0.503540039062,-4.10461425781
1534594341.390.957275390625,-0.401123046875,-0.091064453125,0.511169433594,-0.129699707031,-3.19671630859
1534594341.390.953857421875,-0.398193359375,-0.089111328125,1.01470947266,0.167846679688,-1.56402587891
1534594341.390.9560546875,-0.401123046875,-0.085205078125,1.54113769531,0.450134277344,-0.350952148438
1534594341.40.9482421875,-0.399658203125,-0.089599609375,2.09808349609,0.900268554688,1.28173828125
1534594341.40.94970703125,-0.4013671875,-0.086181640625,2.8076171875,1.25122070312,2.82287597656
1534594341.40.935546875,-0.397705078125,-0.0810546875,3.22723388672,1.69372558594,3.662109375
1534594341.410.93505859375,-0.39306640625,-0.08251953125,3.11279296875,2.22015380859,4.52423095703
1534594341.410.927001953125,-0.39501953125,-0.087646484375,3.35693359375,1.61743164062,4.28009033203
1534594341.410.927001953125,-0.402099609375,-0.07958984375,3.07464599609,1.64031982422,3.91387939453
1534594341.410.920654296875,-0.398681640625,-0.07861328125,2.70080566406,1.77764892578,2.52532958984
1534594341.420.9267578125,-0.4013671875,-0.072021484375,2.15148925781,0.984191894531,1.55639648438
1534594341.420.9208984375,-0.399169921875,-0.075439453125,1.20544433594,0.587463378906,-0.801086425781
1534594341.420.918212890625,-0.4052734375,-0.076171875,0.900268554688,0.06103515625,-2.24304199219
1534594341.430.926025390625,-0.401611328125,-0.0791015625,0.3662109375,-0.18310546875,-3.61633300781
1534594341.430.932373046875,-0.404296875,-0.07763671875,-0.0686645507812,-0.801086425781,-4.47082519531
1534594341.440.9365234375,-0.40380859375,-0.083984375,0.3662109375,-0.732421875,-4.68444824219
1534594341.440.9462890625,-0.402099609375,-0.08056640625,0.244140625,-0.450134277344,-4.17327880859
1534594341.440.9501953125,-0.404052734375,-0.083984375,0.656127929688,-0.259399414062,-2.86102294922
1534594341.450.951171875,-0.40380859375,-0.088134765625,1.17492675781,0.244140625,-1.31988525391
1534594341.450.944091796875,-0.401123046875,-0.083251953125,2.00653076172,0.724792480469,0.312805175781
1534594341.450.944580078125,-0.399169921875,-0.089111328125,2.30407714844,0.968933105469,1.97601318359
1534594341.450.9443359375,-0.396484375,-0.083740234375,2.69317626953,1.55639648438,2.42614746094
1534594341.460.93310546875,-0.396728515625,-0.08056640625,2.69317626953,1.44958496094,3.36456298828
1534594341.460.937744140625,-0.399169921875,-0.08544921875,2.73895263672,1.40380859375,3.30352783203
1534594341.460.9306640625,-0.3974609375,-0.0791015625,2.76947021484,1.48010253906,3.00598144531
1534594341.470.929931640625,-0.39697265625,-0.074462890625,2.46429443359,1.3427734375,2.24304199219
1534594341.470.92333984375,-0.4013671875,-0.080810546875,1.93023681641,0.823974609375,0.831604003906
1534594341.480.92431640625,-0.399169921875,-0.077392578125,1.50299072266,0.663757324219,-0.755310058594
1534594341.480.92626953125,-0.40087890625,-0.079833984375,0.907897949219,-0.152587890625,-2.25830078125
1534594341.480.930419921875,-0.400390625,-0.077392578125,0.373840332031,-0.091552734375,-3.28063964844
1534594341.490.937255859375,-0.40673828125,-0.0849609375,0.190734863281,-0.18310546875,-3.64685058594
1534594341.490.94140625,-0.406005859375,-0.078857421875,0.167846679688,-0.419616699219,-3.40270996094
1534594341.490.940185546875,-0.40185546875,-0.085693359375,0.503540039062,-0.289916992188,-2.99835205078
1534594341.490.945556640625,-0.402099609375,-0.085693359375,0.8544921875,-0.236511230469,-2.18963623047
1534594341.50.94189453125,-0.397216796875,-0.089111328125,1.04522705078,-0.106811523438,-1.52587890625
1534594341.50.943115234375,-0.400634765625,-0.08544921875,1.54876708984,0.144958496094,-0.679016113281
1534594341.50.941162109375,-0.402099609375,-0.08935546875,1.42669677734,0.556945800781,0.0762939453125
1534594341.510.9462890625,-0.3994140625,-0.085205078125,2.12097167969,0.808715820312,1.3427734375
1534594341.510.941162109375,-0.39990234375,-0.083740234375,2.36511230469,1.12152099609,1.91497802734
1534594341.510.938720703125,-0.400634765625,-0.085693359375,2.73132324219,1.37329101562,2.11334228516
1534594341.520.9345703125,-0.3974609375,-0.08056640625,2.15911865234,1.15966796875,1.86920166016
1534594341.520.9248046875,-0.398681640625,-0.0791015625,1.91497802734,1.06048583984,0.755310058594
1534594341.530.928955078125,-0.400146484375,-0.06982421875,1.77764892578,0.625610351562,-0.144958496094
1534594341.530.93310546875,-0.39794921875,-0.073486328125,1.35040283203,0.259399414062,-0.831604003906
1534594341.530.929443359375,-0.399169921875,-0.079345703125,1.0986328125,0.755310058594,-1.55639648438
1534594341.530.931640625,-0.4033203125,-0.078125,0.892639160156,0.343322753906,-2.15911865234
1534594341.540.930908203125,-0.405517578125,-0.0869140625,0.740051269531,0.0839233398438,-2.79235839844
1534594341.540.93798828125,-0.40283203125,-0.074462890625,0.625610351562,0.00762939453125,-2.76184082031
1534594341.540.937744140625,-0.402587890625,-0.08544921875,0.885009765625,-0.213623046875,-2.62451171875
1534594341.550.94189453125,-0.40380859375,-0.083740234375,0.67138671875,-0.0457763671875,-2.28118896484
1534594341.550.941162109375,-0.403564453125,-0.082275390625,1.11389160156,0.167846679688,-2.18200683594
1534594341.550.942138671875,-0.399169921875,-0.08056640625,1.13677978516,0.259399414062,-1.38854980469
1534594341.550.942626953125,-0.40087890625,-0.080322265625,1.60980224609,0.396728515625,-0.404357910156
1534594341.560.94091796875,-0.399169921875,-0.085693359375,1.64031982422,0.686645507812,-0.0228881835938
1534594341.560.941162109375,-0.399169921875,-0.087890625,2.39562988281,0.877380371094,1.15966796875
1534594341.570.939453125,-0.400390625,-0.08740234375,2.02178955078,0.9765625,1.36566162109
1534594341.570.935302734375,-0.398193359375,-0.073486328125,2.03704833984,1.12152099609,1.44195556641
1534594341.570.93310546875,-0.401611328125,-0.082763671875,2.00653076172,0.762939453125,1.06811523438
1534594341.580.93115234375,-0.40185546875,-0.076416015625,1.94549560547,1.00708007812,0.511169433594
1534594341.580.93408203125,-0.396484375,-0.080078125,1.50299072266,0.846862792969,-0.335693359375
1534594341.580.927490234375,-0.3984375,-0.079345703125,1.69372558594,0.411987304688,-0.785827636719
1534594341.590.929931640625,-0.3974609375,-0.0751953125,1.00708007812,0.312805175781,-1.3427734375
1534594341.590.93896484375,-0.399658203125,-0.07763671875,1.14440917969,0.3662109375,-1.67083740234
1534594341.590.93212890625,-0.396728515625,-0.074951171875,1.00708007812,0.267028808594,-1.86920166016
1534594341.60.93603515625,-0.3984375,-0.08740234375,0.961303710938,-0.152587890625,-1.64794921875
1534594341.60.9404296875,-0.3974609375,-0.083984375,1.23596191406,0.343322753906,-1.51062011719
1534594341.610.93896484375,-0.399658203125,-0.091552734375,1.37329101562,0.0762939453125,-0.79345703125
1534594341.610.944091796875,-0.404296875,-0.08642578125,1.56402587891,0.54931640625,-0.518798828125
1534594341.610.941162109375,-0.399658203125,-0.083740234375,1.69372558594,0.54931640625,-0.129699707031
1534594341.620.94384765625,-0.402099609375,-0.08447265625,1.67083740234,0.656127929688,0.320434570312
1534594341.620.9423828125,-0.401123046875,-0.078125,1.90734863281,0.617980957031,0.381469726562
1534594341.620.941650390625,-0.4033203125,-0.083740234375,1.84631347656,0.999450683594,0.732421875
1534594341.620.9345703125,-0.398193359375,-0.081787109375,1.953125,0.633239746094,0.6103515625
1534594341.620.9365234375,-0.40087890625,-0.0869140625,1.953125,0.877380371094,0.984191894531
1534594341.630.936279296875,-0.39501953125,-0.083984375,1.54876708984,1.01470947266,0.694274902344
1534594341.630.933349609375,-0.398681640625,-0.080322265625,2.06756591797,0.801086425781,0.770568847656
1534594341.630.931884765625,-0.399658203125,-0.08544921875,1.54876708984,0.495910644531,0.579833984375
1534594341.630.9326171875,-0.400390625,-0.08251953125,1.77764892578,0.907897949219,0.358581542969
1534594341.640.928466796875,-0.3984375,-0.07861328125,1.64031982422,0.679016113281,-0.0381469726562
1534594341.640.9306640625,-0.395263671875,-0.07958984375,1.61743164062,0.267028808594,-0.541687011719
1534594341.640.929931640625,-0.401611328125,-0.080322265625,1.19781494141,0.350952148438,-0.91552734375
1534594341.650.9306640625,-0.40234375,-0.081787109375,1.07574462891,0.213623046875,-1.05285644531
1534594341.660.931640625,-0.40185546875,-0.083984375,1.26647949219,0.495910644531,-1.18255615234
1534594341.660.942626953125,-0.400634765625,-0.079345703125,1.31988525391,0.221252441406,-1.30462646484
1534594341.660.941650390625,-0.401611328125,-0.0830078125,1.33514404297,0.473022460938,-0.946044921875
1534594341.670.94091796875,-0.4013671875,-0.08544921875,1.57928466797,0.350952148438,-0.686645507812
1534594341.670.93994140625,-0.399658203125,-0.087158203125,1.38854980469,0.373840332031,-0.282287597656
1534594341.670.939697265625,-0.40087890625,-0.07861328125,1.51062011719,0.625610351562,0.0534057617188
1534594341.680.93994140625,-0.3994140625,-0.082275390625,1.90734863281,0.686645507812,0.091552734375
1534594341.680.938720703125,-0.400390625,-0.09130859375,1.60217285156,0.717163085938,0.404357910156
1534594341.680.9365234375,-0.400146484375,-0.080078125,1.98364257812,0.900268554688,0.503540039062
1534594341.680.937255859375,-0.398681640625,-0.0810546875,1.72424316406,0.770568847656,0.465393066406
1534594341.690.93408203125,-0.400634765625,-0.076171875,1.68609619141,0.816345214844,0.778198242188
1534594341.690.936767578125,-0.403076171875,-0.082275390625,1.67083740234,0.9765625,0.442504882812
1534594341.690.93115234375,-0.3984375,-0.082763671875,1.64794921875,0.839233398438,0.343322753906
1534594341.70.93310546875,-0.400146484375,-0.082763671875,1.73950195312,0.633239746094,-0.358581542969
1534594341.70.93359375,-0.396728515625,-0.08251953125,1.36566162109,0.480651855469,-0.411987304688
1534594341.70.93310546875,-0.40185546875,-0.0830078125,1.14440917969,0.389099121094,-0.999450683594
1534594341.710.932861328125,-0.402587890625,-0.0830078125,1.06048583984,0.0839233398438,-1.42669677734
1534594341.710.9384765625,-0.39990234375,-0.0810546875,1.14440917969,0.106811523438,-1.48773193359
1534594341.710.940185546875,-0.404052734375,-0.087890625,1.18255615234,0.00762939453125,-1.59454345703
1534594341.720.93896484375,-0.406494140625,-0.08154296875,1.10626220703,0.350952148438,-1.59454345703
1534594341.720.9423828125,-0.400146484375,-0.075439453125,1.21307373047,0.175476074219,-1.21307373047
1534594341.720.9404296875,-0.404052734375,-0.08251953125,1.51062011719,0.587463378906,-0.48828125
1534594341.730.940673828125,-0.40576171875,-0.081298828125,1.39617919922,0.67138671875,-0.091552734375
1534594341.730.93798828125,-0.403076171875,-0.0791015625,1.99890136719,0.617980957031,0.511169433594
1534594341.740.93603515625,-0.39794921875,-0.082763671875,2.11334228516,1.00708007812,0.801086425781
1534594341.740.935791015625,-0.40087890625,-0.078857421875,2.12097167969,0.617980957031,0.869750976562
1534594341.740.931884765625,-0.39599609375,-0.084228515625,2.00653076172,0.808715820312,0.717163085938
1534594341.750.9326171875,-0.402587890625,-0.080078125,1.93786621094,0.67138671875,0.572204589844
1534594341.750.93115234375,-0.402587890625,-0.07666015625,1.57928466797,0.740051269531,0.0839233398438
1534594341.750.9306640625,-0.398681640625,-0.08056640625,1.52587890625,0.679016113281,-0.213623046875
1534594341.750.927734375,-0.398193359375,-0.08349609375,1.41906738281,0.442504882812,-0.6103515625
1534594341.760.936279296875,-0.40087890625,-0.078125,1.21307373047,0.381469726562,-1.12152099609
1534594341.760.93115234375,-0.400634765625,-0.08349609375,1.13677978516,0.350952148438,-1.29699707031
1534594341.760.93701171875,-0.40478515625,-0.08056640625,1.12152099609,0.236511230469,-1.71661376953
1534594341.770.939697265625,-0.400634765625,-0.0771484375,0.831604003906,0.1220703125,-1.69372558594
1534594341.770.9365234375,-0.401123046875,-0.08056640625,1.19781494141,0.312805175781,-1.29699707031
1534594341.770.93359375,-0.399169921875,-0.076171875,1.38854980469,0.564575195312,-1.15203857422
1534594341.780.942138671875,-0.40185546875,-0.078369140625,1.36566162109,0.473022460938,-0.350952148438
1534594341.780.942626953125,-0.3994140625,-0.083740234375,1.68609619141,0.518798828125,0.0457763671875
1534594341.780.94140625,-0.401123046875,-0.083740234375,1.86920166016,0.503540039062,0.404357910156
1534594341.790.93603515625,-0.401123046875,-0.080322265625,1.50299072266,0.701904296875,0.9765625
1534594341.790.935791015625,-0.3974609375,-0.083984375,1.81579589844,1.12152099609,0.762939453125
1534594341.790.93505859375,-0.401123046875,-0.0830078125,1.83868408203,0.923156738281,0.808715820312
1534594341.790.9345703125,-0.39990234375,-0.0791015625,2.12097167969,0.778198242188,0.8544921875
1534594341.80.930419921875,-0.400390625,-0.083984375,2.18963623047,0.823974609375,0.495910644531
1534594341.80.933349609375,-0.397705078125,-0.082763671875,1.45721435547,0.831604003906,0.0381469726562
1534594341.810.93505859375,-0.403564453125,-0.0810546875,1.54113769531,0.556945800781,-0.381469726562
1534594341.810.935302734375,-0.4033203125,-0.078369140625,0.831604003906,0.114440917969,-1.60980224609
1534594341.820.932373046875,-0.401611328125,-0.0859375,0.961303710938,0.0228881835938,-1.69372558594
1534594341.820.93798828125,-0.39990234375,-0.088623046875,0.91552734375,0.30517578125,-1.61743164062
1534594341.820.941162109375,-0.39892578125,-0.0859375,1.20544433594,0.0152587890625,-1.65557861328
1534594341.820.942626953125,-0.40234375,-0.081298828125,1.12152099609,0.228881835938,-1.220703125
1534594341.830.938232421875,-0.398681640625,-0.08642578125,1.36566162109,0.228881835938,-0.923156738281
1534594341.830.93994140625,-0.40283203125,-0.088134765625,1.39617919922,0.633239746094,-0.244140625
1534594341.830.9375,-0.398193359375,-0.078125,1.64794921875,0.785827636719,0.0457763671875
1534594341.830.935546875,-0.39599609375,-0.078857421875,1.53350830078,0.747680664062,0.274658203125
1534594341.840.93603515625,-0.3984375,-0.08544921875,1.953125,0.770568847656,0.473022460938
1534594341.840.93994140625,-0.400146484375,-0.083740234375,1.82342529297,0.862121582031,0.701904296875
1534594341.840.93408203125,-0.39697265625,-0.085205078125,1.90734863281,0.869750976562,0.885009765625
1534594341.850.93505859375,-0.397705078125,-0.080078125,1.90734863281,0.679016113281,0.579833984375
1534594341.850.93310546875,-0.398193359375,-0.080078125,1.67083740234,0.701904296875,0.221252441406
1534594341.850.932861328125,-0.40380859375,-0.0830078125,1.74713134766,0.67138671875,0.091552734375
1534594341.860.93212890625,-0.401611328125,-0.08154296875,1.41906738281,0.541687011719,-0.648498535156
1534594341.860.9326171875,-0.400634765625,-0.087158203125,1.40380859375,0.617980957031,-0.679016113281
1534594341.860.936767578125,-0.400634765625,-0.08447265625,1.05285644531,0.358581542969,-1.42669677734
1534594341.870.93701171875,-0.401123046875,-0.089599609375,1.15203857422,0.175476074219,-1.33514404297
1534594341.870.93603515625,-0.39892578125,-0.079833984375,0.831604003906,0.18310546875,-1.28173828125
1534594341.870.93994140625,-0.401611328125,-0.0830078125,1.45721435547,0.244140625,-1.3427734375
1534594341.880.940673828125,-0.398681640625,-0.084228515625,1.35803222656,0.0839233398438,-0.564575195312
1534594341.880.93994140625,-0.40234375,-0.084716796875,1.63269042969,0.396728515625,-0.236511230469
1534594341.890.93896484375,-0.404052734375,-0.080322265625,1.73950195312,0.823974609375,0.18310546875
1534594341.890.936279296875,-0.3974609375,-0.078125,1.89971923828,0.862121582031,0.30517578125
1534594341.890.93603515625,-0.406494140625,-0.081298828125,2.00653076172,0.823974609375,0.808715820312
1534594341.90.935791015625,-0.40185546875,-0.078369140625,1.93023681641,0.885009765625,0.6103515625
1534594341.90.934814453125,-0.397705078125,-0.07861328125,1.75476074219,0.892639160156,0.221252441406
1534594341.90.932373046875,-0.399658203125,-0.083740234375,1.63269042969,0.335693359375,-0.320434570312
1534594341.910.9345703125,-0.396240234375,-0.081298828125,1.33514404297,0.419616699219,-0.465393066406
1534594341.910.937255859375,-0.403076171875,-0.075439453125,1.35040283203,0.480651855469,-0.79345703125
1534594341.910.93115234375,-0.39794921875,-0.07470703125,1.11389160156,0.534057617188,-1.08337402344
1534594341.910.931884765625,-0.403076171875,-0.083984375,1.40380859375,0.518798828125,-1.19781494141
1534594341.920.93701171875,-0.398681640625,-0.074462890625,1.13677978516,0.251770019531,-1.14440917969
1534594341.920.94091796875,-0.39990234375,-0.078369140625,1.09100341797,0.0381469726562,-1.11389160156
1534594341.920.940185546875,-0.402587890625,-0.077880859375,1.06811523438,0.335693359375,-1.19018554688
1534594341.930.9375,-0.396484375,-0.07666015625,1.44195556641,0.251770019531,-0.717163085938
1534594341.930.935302734375,-0.396728515625,-0.08642578125,1.40380859375,0.404357910156,-0.67138671875
1534594341.930.933349609375,-0.39794921875,-0.08203125,1.63269042969,0.625610351562,-0.236511230469
1534594341.940.93994140625,-0.397216796875,-0.08203125,1.72424316406,1.06048583984,0.267028808594
1534594341.940.9404296875,-0.392333984375,-0.086669921875,1.8310546875,0.411987304688,0.534057617188
1534594341.940.93701171875,-0.399169921875,-0.085693359375,1.54876708984,0.816345214844,0.411987304688
1534594341.950.939453125,-0.396484375,-0.0791015625,1.85394287109,0.465393066406,0.411987304688
1534594341.960.93798828125,-0.3984375,-0.077880859375,1.50299072266,0.732421875,-0.694274902344
1534594341.960.9365234375,-0.39697265625,-0.08154296875,1.28173828125,0.244140625,-1.10626220703
1534594341.960.932373046875,-0.401611328125,-0.0859375,1.220703125,0.663757324219,-1.11389160156
1534594341.970.938720703125,-0.40234375,-0.083251953125,1.16729736328,-0.0457763671875,-1.220703125
1534594341.970.932373046875,-0.402099609375,-0.08447265625,1.60217285156,0.312805175781,-0.846862792969
1534594341.970.9375,-0.403564453125,-0.080322265625,1.31988525391,0.373840332031,-0.877380371094
1534594341.980.935791015625,-0.395263671875,-0.079833984375,1.36566162109,0.396728515625,-0.747680664062
1534594341.980.93505859375,-0.39892578125,-0.078125,1.38854980469,0.79345703125,-0.534057617188
1534594341.980.9326171875,-0.396728515625,-0.085693359375,1.61743164062,0.556945800781,-0.175476074219
1534594341.980.939208984375,-0.397216796875,-0.08154296875,1.59454345703,0.717163085938,0.144958496094
1534594341.990.933349609375,-0.39892578125,-0.07421875,1.85394287109,0.503540039062,0.251770019531
1534594341.990.93359375,-0.398681640625,-0.0830078125,1.8310546875,0.823974609375,0.1220703125
1534594341.990.93798828125,-0.40185546875,-0.08349609375,1.60980224609,0.640869140625,-0.152587890625
1534594342.00.93310546875,-0.40087890625,-0.074462890625,1.46484375,0.656127929688,-0.267028808594
1534594342.00.9345703125,-0.40380859375,-0.08056640625,1.64031982422,0.740051269531,-0.457763671875
1534594342.00.937744140625,-0.400146484375,-0.07958984375,1.64031982422,0.511169433594,-0.450134277344
1534594342.010.9375,-0.39990234375,-0.073974609375,1.5869140625,0.801086425781,-0.663757324219
1534594342.010.93701171875,-0.402587890625,-0.079833984375,1.45721435547,0.434875488281,-0.862121582031
1534594342.010.936279296875,-0.4033203125,-0.087890625,1.28173828125,0.404357910156,-0.717163085938
1534594342.020.939697265625,-0.40234375,-0.079345703125,1.49536132812,0.473022460938,-0.885009765625
1534594342.020.936279296875,-0.397216796875,-0.080078125,1.52587890625,0.526428222656,-0.724792480469
1534594342.030.936767578125,-0.400390625,-0.08203125,1.60217285156,0.648498535156,-0.534057617188
1534594342.030.934814453125,-0.399658203125,-0.080078125,1.47247314453,0.518798828125,-0.18310546875
1534594342.030.939453125,-0.399169921875,-0.084228515625,1.60217285156,0.541687011719,-0.0686645507812
1534594342.040.935546875,-0.400390625,-0.082275390625,1.76239013672,0.526428222656,0.0534057617188
1534594342.040.939697265625,-0.400146484375,-0.08154296875,1.51824951172,0.885009765625,-0.0991821289062
1534594342.040.93505859375,-0.398193359375,-0.080078125,1.74713134766,0.511169433594,-0.106811523438
1534594342.050.939697265625,-0.40087890625,-0.0771484375,1.51062011719,0.511169433594,-0.106811523438
1534594342.050.9375,-0.401123046875,-0.081787109375,1.54876708984,0.320434570312,-0.572204589844
1534594342.050.93798828125,-0.396484375,-0.083984375,1.54113769531,0.48828125,-0.42724609375
1534594342.050.938720703125,-0.398681640625,-0.08154296875,1.43432617188,0.350952148438,-0.67138671875
1534594342.060.936767578125,-0.40185546875,-0.082275390625,1.24359130859,0.511169433594,-0.816345214844
1534594342.060.933349609375,-0.400390625,-0.075927734375,1.59454345703,0.343322753906,-0.694274902344
1534594342.060.937744140625,-0.40234375,-0.085693359375,1.07574462891,0.411987304688,-0.686645507812
1534594342.070.933837890625,-0.40185546875,-0.083740234375,1.33514404297,0.18310546875,-0.877380371094
1534594342.070.93896484375,-0.399658203125,-0.087158203125,1.60980224609,0.701904296875,-0.511169433594
1534594342.070.937744140625,-0.404296875,-0.087890625,1.35040283203,0.282287597656,-0.244140625
1534594342.080.93701171875,-0.399658203125,-0.08056640625,1.70135498047,0.633239746094,-0.160217285156
1534594342.080.93798828125,-0.40380859375,-0.083251953125,1.57165527344,0.778198242188,-0.0152587890625
1534594342.080.936767578125,-0.39697265625,-0.083740234375,1.66320800781,0.717163085938,0.0152587890625
1534594342.090.93505859375,-0.401611328125,-0.0771484375,1.63269042969,0.694274902344,0.114440917969
1534594342.090.935546875,-0.3974609375,-0.079833984375,1.67846679688,0.701904296875,-0.251770019531
1534594342.090.932861328125,-0.401123046875,-0.084716796875,1.38854980469,0.434875488281,-0.434875488281
1534594342.10.933837890625,-0.398193359375,-0.077880859375,1.220703125,0.587463378906,-0.762939453125
1534594342.110.938720703125,-0.401123046875,-0.076416015625,1.26647949219,0.350952148438,-0.79345703125
1534594342.110.93798828125,-0.4052734375,-0.080078125,1.24359130859,0.267028808594,-0.686645507812
1534594342.110.933837890625,-0.399658203125,-0.082763671875,1.57165527344,0.328063964844,-0.785827636719
1534594342.120.935791015625,-0.3994140625,-0.085205078125,1.30462646484,0.251770019531,-0.79345703125
1534594342.120.93603515625,-0.400390625,-0.08056640625,1.35040283203,0.556945800781,-0.373840332031
1534594342.120.939453125,-0.401123046875,-0.080078125,1.55639648438,0.434875488281,-0.312805175781
1534594342.120.93798828125,-0.400390625,-0.079833984375,1.53350830078,0.67138671875,-0.328063964844
1534594342.130.9384765625,-0.40283203125,-0.076171875,1.85394287109,0.694274902344,0.129699707031
1534594342.130.939697265625,-0.40185546875,-0.0810546875,1.72424316406,0.518798828125,-0.0228881835938
1534594342.130.931884765625,-0.3984375,-0.08642578125,1.56402587891,0.556945800781,0.236511230469
1534594342.140.934326171875,-0.3984375,-0.08251953125,1.68609619141,0.663757324219,-0.0152587890625
1534594342.140.93603515625,-0.396240234375,-0.087890625,1.38854980469,0.457763671875,-0.389099121094
1534594342.140.934326171875,-0.397216796875,-0.08642578125,1.63269042969,0.625610351562,-0.312805175781
1534594342.140.93798828125,-0.400390625,-0.083251953125,1.54113769531,0.770568847656,-0.450134277344
1534594342.150.93798828125,-0.400146484375,-0.08203125,1.43432617188,0.480651855469,-0.602722167969
1534594342.150.9384765625,-0.40087890625,-0.084228515625,1.44958496094,0.564575195312,-0.785827636719
1534594342.150.936279296875,-0.40234375,-0.077880859375,1.19018554688,0.518798828125,-0.823974609375
1534594342.160.938232421875,-0.40185546875,-0.080810546875,1.28173828125,0.198364257812,-0.900268554688
1534594342.160.937744140625,-0.4013671875,-0.07763671875,1.53350830078,0.419616699219,-0.831604003906
1534594342.170.935546875,-0.400634765625,-0.085693359375,1.61743164062,0.564575195312,-0.617980957031
1534594342.170.93505859375,-0.40576171875,-0.073974609375,1.73187255859,0.526428222656,-0.381469726562
1534594342.170.9296875,-0.396240234375,-0.08740234375,1.57928466797,0.6103515625,0.030517578125
1534594342.180.936767578125,-0.400390625,-0.080322265625,1.78527832031,0.648498535156,0.0152587890625
1534594342.180.9345703125,-0.398193359375,-0.0791015625,1.60217285156,0.434875488281,0.0991821289062
1534594342.180.933837890625,-0.400390625,-0.081298828125,1.67846679688,0.518798828125,0.152587890625
1534594342.190.938720703125,-0.397705078125,-0.078369140625,1.60217285156,0.579833984375,-0.114440917969
1534594342.190.93505859375,-0.403076171875,-0.081787109375,1.8310546875,0.373840332031,-0.381469726562
1534594342.20.934814453125,-0.402587890625,-0.083740234375,1.39617919922,0.617980957031,-0.79345703125
1534594342.20.9365234375,-0.400634765625,-0.085205078125,1.33514404297,0.373840332031,-0.762939453125
1534594342.20.936279296875,-0.40087890625,-0.085693359375,1.17492675781,0.518798828125,-0.816345214844
1534594342.210.936767578125,-0.40380859375,-0.0830078125,1.27410888672,0.335693359375,-0.831604003906
1534594342.210.9365234375,-0.404541015625,-0.07763671875,1.52587890625,0.587463378906,-0.534057617188
1534594342.210.934326171875,-0.400146484375,-0.083740234375,1.47247314453,0.312805175781,-0.473022460938
1534594342.210.943359375,-0.398193359375,-0.082275390625,1.56402587891,0.732421875,-0.595092773438
1534594342.220.936279296875,-0.39599609375,-0.0791015625,1.79290771484,0.251770019531,-0.0991821289062
1534594342.220.938720703125,-0.40087890625,-0.079345703125,1.41143798828,0.579833984375,0.0534057617188
1534594342.220.93701171875,-0.40185546875,-0.08935546875,1.45721435547,0.709533691406,0.106811523438
1534594342.220.937744140625,-0.40380859375,-0.083984375,1.53350830078,0.396728515625,0.0152587890625
1534594342.230.937255859375,-0.400634765625,-0.07958984375,1.65557861328,0.656127929688,0.0
1534594342.230.933837890625,-0.4052734375,-0.08154296875,1.75476074219,0.419616699219,0.114440917969
1534594342.230.936279296875,-0.397705078125,-0.085693359375,1.60217285156,0.465393066406,-0.190734863281
1534594342.240.932373046875,-0.4013671875,-0.080322265625,1.50299072266,0.526428222656,-0.167846679688
1534594342.250.933837890625,-0.40087890625,-0.081787109375,1.41906738281,0.312805175781,-0.968933105469
1534594342.250.9365234375,-0.3994140625,-0.08447265625,1.35040283203,0.564575195312,-1.15203857422
1534594342.250.937255859375,-0.400634765625,-0.082763671875,1.0986328125,0.450134277344,-0.778198242188
1534594342.250.933349609375,-0.398193359375,-0.08349609375,1.64794921875,0.663757324219,-0.991821289062
1534594342.260.938232421875,-0.396484375,-0.080810546875,1.35040283203,0.48828125,-0.709533691406
1534594342.260.938232421875,-0.3994140625,-0.080810546875,1.35803222656,0.473022460938,-0.717163085938
1534594342.260.93505859375,-0.39697265625,-0.085205078125,1.44958496094,0.274658203125,-0.633239746094
1534594342.270.939453125,-0.397216796875,-0.085693359375,1.708984375,0.556945800781,-0.503540039062
1534594342.270.936279296875,-0.398681640625,-0.07958984375,1.73950195312,0.106811523438,-0.167846679688
1534594342.270.9365234375,-0.396484375,-0.081298828125,1.70135498047,0.656127929688,-0.030517578125
1534594342.270.9365234375,-0.3974609375,-0.08544921875,1.74713134766,0.373840332031,0.06103515625
1534594342.280.9375,-0.399169921875,-0.08056640625,1.54113769531,0.801086425781,-0.0152587890625
1534594342.280.933349609375,-0.397216796875,-0.083740234375,1.67846679688,0.724792480469,-0.0839233398438
1534594342.280.938232421875,-0.400146484375,-0.078369140625,1.78527832031,0.724792480469,0.06103515625
1534594342.280.935791015625,-0.396484375,-0.080322265625,1.45721435547,0.656127929688,-0.160217285156
1534594342.290.936279296875,-0.405029296875,-0.07958984375,1.5869140625,0.480651855469,-0.396728515625
1534594342.290.93701171875,-0.3994140625,-0.08251953125,1.60980224609,0.564575195312,-0.274658203125
1534594342.290.938720703125,-0.39990234375,-0.083251953125,1.32751464844,0.625610351562,-0.930786132812
1534594342.30.93896484375,-0.399658203125,-0.08203125,1.28936767578,0.617980957031,-0.9765625
1534594342.30.935791015625,-0.39990234375,-0.080078125,1.37329101562,0.297546386719,-0.602722167969
1534594342.30.9345703125,-0.40380859375,-0.08447265625,1.28173828125,0.534057617188,-0.587463378906
1534594342.310.937255859375,-0.3974609375,-0.081787109375,1.26647949219,0.396728515625,-0.350952148438
1534594342.310.940185546875,-0.3955078125,-0.083984375,1.53350830078,0.6103515625,-0.328063964844
1534594342.320.938232421875,-0.4013671875,-0.08154296875,1.55639648438,0.6103515625,-0.1220703125
1534594342.320.938232421875,-0.400390625,-0.088134765625,1.82342529297,0.762939453125,0.0762939453125
1534594342.320.935546875,-0.40283203125,-0.08740234375,1.64794921875,0.755310058594,0.274658203125
1534594342.330.9345703125,-0.39697265625,-0.076171875,1.87683105469,0.572204589844,0.0
1534594342.330.93505859375,-0.3984375,-0.088623046875,1.54876708984,0.526428222656,-0.1220703125
1534594342.330.9345703125,-0.404296875,-0.080810546875,1.62506103516,0.785827636719,-0.320434570312
1534594342.340.933349609375,-0.40185546875,-0.082275390625,1.45721435547,0.404357910156,-0.343322753906
1534594342.340.934814453125,-0.401611328125,-0.08154296875,1.28936767578,0.457763671875,-0.465393066406
1534594342.340.93603515625,-0.405029296875,-0.08056640625,1.60217285156,0.442504882812,-1.09100341797
1534594342.350.93505859375,-0.40283203125,-0.080810546875,1.26647949219,0.282287597656,-0.938415527344
1534594342.350.935791015625,-0.401611328125,-0.07861328125,1.12915039062,0.381469726562,-0.968933105469
1534594342.350.939208984375,-0.4052734375,-0.084228515625,1.19018554688,0.503540039062,-0.869750976562
1534594342.350.935546875,-0.401611328125,-0.083984375,1.26647949219,0.526428222656,-0.930786132812
1534594342.360.935791015625,-0.400146484375,-0.08056640625,1.21307373047,0.48828125,-0.587463378906
1534594342.360.938720703125,-0.399658203125,-0.08154296875,1.60980224609,0.579833984375,-0.381469726562
1534594342.360.93798828125,-0.40234375,-0.08447265625,1.77001953125,0.419616699219,-0.3662109375
1534594342.370.93896484375,-0.399169921875,-0.0810546875,1.59454345703,0.579833984375,-0.320434570312
1534594342.370.935546875,-0.402587890625,-0.0830078125,1.66320800781,0.938415527344,0.0991821289062
1534594342.370.93408203125,-0.39697265625,-0.08447265625,1.65557861328,0.534057617188,0.0839233398438
1534594342.380.936767578125,-0.400390625,-0.081787109375,1.51824951172,0.495910644531,0.205993652344
1534594342.380.9375,-0.399658203125,-0.08056640625,1.67846679688,0.473022460938,-0.297546386719
1534594342.380.932861328125,-0.402099609375,-0.07861328125,1.56402587891,0.823974609375,-0.328063964844
1534594342.390.938232421875,-0.400390625,-0.0810546875,1.41143798828,0.389099121094,-0.511169433594
1534594342.40.939697265625,-0.400146484375,-0.07861328125,1.12915039062,0.381469726562,-0.900268554688
1534594342.40.937255859375,-0.39794921875,-0.0859375,1.38092041016,0.228881835938,-1.04522705078
1534594342.40.9375,-0.39404296875,-0.084228515625,1.50299072266,0.267028808594,-0.625610351562
1534594342.410.938720703125,-0.398193359375,-0.08056640625,1.41906738281,0.389099121094,-0.48828125
1534594342.410.93505859375,-0.396728515625,-0.0830078125,1.61743164062,0.625610351562,-0.274658203125
1534594342.410.939453125,-0.395263671875,-0.08740234375,1.73187255859,0.587463378906,-0.030517578125
1534594342.410.938232421875,-0.396728515625,-0.080810546875,1.64031982422,0.648498535156,-0.091552734375
1534594342.420.938232421875,-0.400634765625,-0.082763671875,1.66320800781,0.48828125,0.297546386719
1534594342.420.93505859375,-0.40234375,-0.083251953125,1.73950195312,0.679016113281,0.213623046875
1534594342.420.93310546875,-0.3994140625,-0.0791015625,1.67846679688,0.579833984375,0.198364257812
1534594342.430.93505859375,-0.39892578125,-0.085693359375,1.56402587891,0.709533691406,0.114440917969
1534594342.430.930419921875,-0.400634765625,-0.077880859375,1.69372558594,0.823974609375,-0.328063964844
1534594342.430.930908203125,-0.404296875,-0.08154296875,1.51824951172,0.434875488281,-0.495910644531
1534594342.440.93798828125,-0.40185546875,-0.080810546875,1.32751464844,0.526428222656,-0.686645507812
1534594342.440.9375,-0.4033203125,-0.082763671875,1.31225585938,0.625610351562,-0.877380371094
1534594342.440.935302734375,-0.404541015625,-0.077392578125,1.21307373047,0.350952148438,-0.999450683594
1534594342.450.939208984375,-0.397705078125,-0.08154296875,1.13677978516,0.213623046875,-0.892639160156
1534594342.450.9384765625,-0.401123046875,-0.077392578125,1.12915039062,0.30517578125,-0.755310058594
1534594342.450.9375,-0.4033203125,-0.083984375,1.43432617188,0.473022460938,-0.556945800781
1534594342.460.937255859375,-0.400146484375,-0.0810546875,1.46484375,0.541687011719,-0.244140625
1534594342.460.93701171875,-0.39794921875,-0.085693359375,1.77764892578,0.694274902344,-0.1220703125
1534594342.460.936279296875,-0.40185546875,-0.078857421875,1.70135498047,0.724792480469,0.297546386719
1534594342.470.93603515625,-0.404052734375,-0.077392578125,1.8310546875,0.526428222656,0.114440917969
1534594342.470.935302734375,-0.399658203125,-0.08056640625,1.85394287109,0.778198242188,0.205993652344
1534594342.470.935791015625,-0.4013671875,-0.084228515625,1.51062011719,0.808715820312,0.221252441406
1534594342.480.936279296875,-0.3994140625,-0.07763671875,1.48010253906,0.442504882812,-0.18310546875
1534594342.480.935302734375,-0.40087890625,-0.0751953125,1.46484375,0.473022460938,-0.526428222656
1534594342.480.937255859375,-0.40087890625,-0.077880859375,1.54113769531,0.48828125,-0.640869140625
1534594342.490.937744140625,-0.403076171875,-0.077392578125,1.32751464844,0.42724609375,-0.885009765625
1534594342.490.93505859375,-0.400634765625,-0.073486328125,0.961303710938,0.144958496094,-0.984191894531
1534594342.490.940185546875,-0.399169921875,-0.0791015625,1.20544433594,0.3662109375,-0.946044921875
1534594342.50.935791015625,-0.39990234375,-0.0771484375,0.984191894531,0.167846679688,-0.953674316406
1534594342.50.93994140625,-0.401123046875,-0.08349609375,1.74713134766,0.3662109375,-0.572204589844
1534594342.510.936767578125,-0.399169921875,-0.080322265625,1.67083740234,0.495910644531,-0.358581542969
1534594342.510.9365234375,-0.398681640625,-0.083251953125,1.79290771484,0.396728515625,-0.091552734375
1534594342.510.937255859375,-0.396728515625,-0.08251953125,1.53350830078,0.778198242188,0.175476074219
1534594342.510.93603515625,-0.39306640625,-0.08056640625,1.89971923828,0.755310058594,0.0228881835938
1534594342.520.929931640625,-0.396240234375,-0.082763671875,1.84631347656,0.625610351562,0.1220703125
1534594342.530.93505859375,-0.39990234375,-0.076904296875,1.88446044922,0.556945800781,0.389099121094
1534594342.530.932861328125,-0.398681640625,-0.079345703125,1.41143798828,0.434875488281,-0.6103515625
1534594342.530.933349609375,-0.400146484375,-0.07763671875,1.31988525391,0.450134277344,-0.846862792969
1534594342.540.93896484375,-0.400634765625,-0.08642578125,1.28173828125,0.343322753906,-0.846862792969
1534594342.540.935546875,-0.398681640625,-0.075439453125,1.22833251953,0.312805175781,-1.23596191406
1534594342.540.93701171875,-0.396240234375,-0.071533203125,1.28936767578,0.297546386719,-1.09100341797
1534594342.540.93896484375,-0.400146484375,-0.08203125,1.38854980469,0.526428222656,-0.717163085938
1534594342.550.93310546875,-0.403076171875,-0.075439453125,1.28936767578,0.434875488281,-0.823974609375
1534594342.550.939453125,-0.39990234375,-0.078857421875,1.49536132812,0.381469726562,-0.694274902344
1534594342.550.935791015625,-0.399169921875,-0.0869140625,1.51824951172,0.602722167969,-0.236511230469
1534594342.550.93701171875,-0.40380859375,-0.0771484375,1.49536132812,0.404357910156,-0.244140625
1534594342.560.93896484375,-0.40283203125,-0.081787109375,1.60217285156,0.778198242188,0.160217285156
1534594342.560.936767578125,-0.399658203125,-0.080078125,1.77764892578,0.511169433594,0.282287597656
1534594342.560.934814453125,-0.399658203125,-0.0791015625,1.68609619141,0.625610351562,0.160217285156
1534594342.570.936279296875,-0.40576171875,-0.077880859375,1.78527832031,0.633239746094,0.144958496094
1534594342.570.9345703125,-0.40234375,-0.077880859375,1.86920166016,0.595092773438,0.221252441406
1534594342.570.9375,-0.402587890625,-0.081787109375,1.67083740234,0.534057617188,-0.0457763671875
1534594342.580.933349609375,-0.401611328125,-0.084228515625,1.60980224609,0.740051269531,-0.350952148438
1534594342.580.93505859375,-0.39990234375,-0.081298828125,1.5869140625,0.328063964844,-0.556945800781
1534594342.580.938232421875,-0.402587890625,-0.073974609375,1.18255615234,0.419616699219,-0.999450683594
1534594342.590.936767578125,-0.404296875,-0.075927734375,1.15203857422,0.534057617188,-1.03759765625
1534594342.590.93798828125,-0.40087890625,-0.0830078125,1.25122070312,0.465393066406,-1.27410888672
1534594342.590.9345703125,-0.4013671875,-0.0859375,1.26647949219,0.312805175781,-1.02996826172
1534594342.60.935302734375,-0.397216796875,-0.08203125,1.43432617188,0.259399414062,-0.541687011719
1534594342.60.93798828125,-0.400634765625,-0.082275390625,1.64794921875,0.633239746094,-0.129699707031
1534594342.610.936279296875,-0.39599609375,-0.07568359375,1.54113769531,0.411987304688,0.0
1534594342.610.931884765625,-0.39794921875,-0.080810546875,1.86157226562,0.640869140625,0.198364257812
1534594342.610.935302734375,-0.39794921875,-0.08642578125,1.89971923828,0.67138671875,0.442504882812
1534594342.620.938720703125,-0.400390625,-0.073974609375,1.64031982422,0.556945800781,0.129699707031
1534594342.620.933837890625,-0.398681640625,-0.078125,1.60217285156,0.701904296875,-0.0228881835938
1534594342.620.936279296875,-0.39990234375,-0.083251953125,1.28173828125,0.762939453125,-0.312805175781
1534594342.630.9326171875,-0.401123046875,-0.08349609375,1.77001953125,0.42724609375,-0.48828125
1534594342.630.937744140625,-0.40087890625,-0.081787109375,1.38092041016,0.465393066406,-0.8544921875
1534594342.630.9384765625,-0.402099609375,-0.08349609375,1.32751464844,0.556945800781,-0.686645507812
1534594342.630.9375,-0.39794921875,-0.078125,1.21307373047,0.221252441406,-0.938415527344
1534594342.640.942626953125,-0.39892578125,-0.08203125,1.35040283203,0.411987304688,-1.31225585938
1534594342.640.936767578125,-0.39892578125,-0.08056640625,1.16729736328,0.267028808594,-1.20544433594
1534594342.640.937744140625,-0.400634765625,-0.082275390625,1.19018554688,0.297546386719,-0.892639160156
1534594342.650.93896484375,-0.402099609375,-0.076904296875,1.47247314453,0.495910644531,-0.778198242188
1534594342.650.940673828125,-0.398193359375,-0.08056640625,1.76239013672,0.617980957031,-0.259399414062
1534594342.650.934326171875,-0.398681640625,-0.08056640625,1.74713134766,1.02233886719,0.18310546875
1534594342.660.942626953125,-0.3984375,-0.08056640625,1.50299072266,0.640869140625,0.198364257812
1534594342.660.93603515625,-0.401123046875,-0.07861328125,1.61743164062,0.701904296875,0.282287597656
1534594342.660.9384765625,-0.400634765625,-0.086669921875,1.87683105469,0.869750976562,0.221252441406
1534594342.670.93994140625,-0.401123046875,-0.081787109375,1.67846679688,0.709533691406,0.18310546875
1534594342.670.93212890625,-0.400146484375,-0.076171875,1.71661376953,0.801086425781,0.0
1534594342.670.9345703125,-0.402099609375,-0.07373046875,1.61743164062,0.274658203125,-0.419616699219
1534594342.680.93798828125,-0.40234375,-0.072998046875,1.26647949219,0.244140625,-0.946044921875
1534594342.680.937255859375,-0.40380859375,-0.082763671875,1.03759765625,0.411987304688,-1.07574462891
1534594342.690.934814453125,-0.402099609375,-0.08056640625,1.25122070312,0.312805175781,-0.984191894531
1534594342.690.93505859375,-0.400634765625,-0.08251953125,1.29699707031,0.450134277344,-1.05285644531
1534594342.690.938232421875,-0.400390625,-0.080078125,1.38854980469,0.54931640625,-1.0986328125
1534594342.690.932861328125,-0.396484375,-0.085205078125,1.54876708984,0.175476074219,-0.778198242188
1534594342.70.937744140625,-0.40185546875,-0.080322265625,1.708984375,0.602722167969,-0.457763671875
1534594342.70.939208984375,-0.399169921875,-0.08447265625,1.73950195312,0.67138671875,0.0228881835938
1534594342.70.934326171875,-0.398193359375,-0.086669921875,1.46484375,0.701904296875,-0.0686645507812
1534594342.710.93505859375,-0.398681640625,-0.08203125,1.86920166016,0.785827636719,0.274658203125
1534594342.710.9375,-0.400146484375,-0.078369140625,1.67846679688,0.564575195312,0.358581542969
1534594342.710.93505859375,-0.401123046875,-0.08447265625,1.86157226562,0.663757324219,0.114440917969
1534594342.710.93798828125,-0.399169921875,-0.08447265625,1.60980224609,0.640869140625,0.274658203125
1534594342.720.935791015625,-0.404052734375,-0.084228515625,1.40380859375,0.526428222656,0.0686645507812
1534594342.720.936279296875,-0.40576171875,-0.08349609375,1.41906738281,0.518798828125,-0.213623046875
1534594342.720.9384765625,-0.39794921875,-0.07861328125,1.49536132812,0.656127929688,-0.595092773438
1534594342.730.933349609375,-0.400634765625,-0.080078125,1.49536132812,0.572204589844,-0.762939453125
1534594342.730.936767578125,-0.40087890625,-0.0830078125,1.3427734375,0.312805175781,-1.02996826172
1534594342.730.939208984375,-0.397705078125,-0.083251953125,1.22833251953,0.0839233398438,-1.15966796875
1534594342.740.939453125,-0.3994140625,-0.080078125,1.24359130859,0.457763671875,-1.19781494141
1534594342.740.9345703125,-0.39990234375,-0.079345703125,1.25885009766,0.442504882812,-0.808715820312
1534594342.740.9375,-0.39453125,-0.086669921875,1.48773193359,0.3662109375,-0.648498535156
1534594342.750.937744140625,-0.40283203125,-0.08349609375,1.60980224609,0.617980957031,-0.297546386719
1534594342.750.93603515625,-0.396728515625,-0.081787109375,1.87683105469,0.762939453125,0.00762939453125
1534594342.750.933837890625,-0.398193359375,-0.085205078125,1.68609619141,0.679016113281,0.213623046875
1534594342.760.935546875,-0.397216796875,-0.079345703125,1.75476074219,0.656127929688,0.221252441406
1534594342.760.936767578125,-0.396484375,-0.078857421875,1.77001953125,0.411987304688,0.0457763671875
1534594342.760.941650390625,-0.397705078125,-0.08349609375,1.80816650391,0.686645507812,-0.0228881835938
1534594342.770.93701171875,-0.3984375,-0.078857421875,1.708984375,0.495910644531,-0.396728515625
1534594342.770.935791015625,-0.401123046875,-0.0830078125,1.61743164062,0.724792480469,-0.350952148438
1534594342.770.939697265625,-0.3984375,-0.078857421875,1.46484375,0.450134277344,-0.679016113281
1534594342.780.9326171875,-0.39697265625,-0.08203125,1.57165527344,0.701904296875,-0.938415527344
1534594342.780.937744140625,-0.398193359375,-0.0791015625,1.38854980469,0.320434570312,-1.00708007812
1534594342.790.93798828125,-0.3994140625,-0.08154296875,1.48773193359,0.267028808594,-0.8544921875
1534594342.790.93359375,-0.401611328125,-0.080810546875,1.24359130859,0.404357910156,-0.801086425781
1534594342.790.938720703125,-0.396728515625,-0.08203125,1.41143798828,0.572204589844,-0.595092773438
1534594342.80.93603515625,-0.404052734375,-0.082763671875,1.38092041016,0.411987304688,-0.42724609375
1534594342.80.932373046875,-0.39697265625,-0.076416015625,1.35040283203,0.457763671875,-0.030517578125
1534594342.80.938232421875,-0.399658203125,-0.082763671875,1.73187255859,0.717163085938,-0.0228881835938
1534594342.80.937255859375,-0.401611328125,-0.087158203125,1.72424316406,0.862121582031,0.0991821289062
1534594342.810.938232421875,-0.398193359375,-0.078369140625,1.54876708984,0.587463378906,-0.18310546875
1534594342.810.9384765625,-0.401611328125,-0.073974609375,1.48010253906,0.404357910156,0.114440917969
1534594342.810.933837890625,-0.39892578125,-0.07763671875,1.69372558594,0.701904296875,0.0
1534594342.820.931640625,-0.405029296875,-0.078125,1.90734863281,0.419616699219,-0.274658203125
1534594342.830.93701171875,-0.396240234375,-0.083984375,1.54113769531,0.656127929688,-1.00708007812
1534594342.830.9345703125,-0.404052734375,-0.085205078125,1.40380859375,0.328063964844,-0.877380371094
1534594342.830.934814453125,-0.3994140625,-0.085693359375,1.36566162109,0.503540039062,-0.79345703125
1534594342.830.93603515625,-0.40087890625,-0.079345703125,1.42669677734,0.137329101562,-0.6103515625
1534594342.840.9375,-0.40185546875,-0.080810546875,1.47247314453,0.473022460938,-0.701904296875
1534594342.840.935546875,-0.40283203125,-0.0859375,1.38854980469,0.526428222656,-0.328063964844
1534594342.840.933349609375,-0.3955078125,-0.080810546875,1.49536132812,0.747680664062,-0.396728515625
1534594342.850.938720703125,-0.39892578125,-0.082763671875,1.65557861328,0.656127929688,0.0534057617188
1534594342.850.939208984375,-0.401123046875,-0.07861328125,1.53350830078,0.625610351562,-0.152587890625
1534594342.850.9345703125,-0.397705078125,-0.0810546875,1.61743164062,0.862121582031,0.091552734375
1534594342.850.934814453125,-0.398193359375,-0.07861328125,1.63269042969,0.663757324219,-0.205993652344
1534594342.860.939208984375,-0.39501953125,-0.08447265625,1.61743164062,0.381469726562,-0.030517578125
1534594342.860.93701171875,-0.39892578125,-0.079833984375,1.708984375,0.801086425781,-0.244140625
1534594342.860.93701171875,-0.400390625,-0.0849609375,1.33514404297,0.274658203125,-0.503540039062
1534594342.870.934326171875,-0.396728515625,-0.079345703125,1.5869140625,0.709533691406,-0.579833984375
1534594342.870.935546875,-0.3974609375,-0.07763671875,1.48010253906,0.373840332031,-0.633239746094
1534594342.870.938720703125,-0.398193359375,-0.076416015625,1.29699707031,0.503540039062,-0.839233398438
1534594342.880.9404296875,-0.39697265625,-0.08056640625,1.35803222656,0.495910644531,-0.8544921875
1534594342.880.93701171875,-0.40087890625,-0.080322265625,1.46484375,0.411987304688,-0.79345703125
1534594342.880.939453125,-0.399658203125,-0.079833984375,1.64031982422,0.442504882812,-0.640869140625
1534594342.890.93994140625,-0.398193359375,-0.0830078125,1.59454345703,0.42724609375,-0.434875488281
1534594342.890.937744140625,-0.39892578125,-0.084716796875,1.30462646484,0.808715820312,-0.144958496094
1534594342.90.93603515625,-0.400634765625,-0.086181640625,1.64794921875,0.495910644531,0.0381469726562
1534594342.90.935546875,-0.396484375,-0.08056640625,1.60980224609,0.511169433594,0.0762939453125
1534594342.90.93896484375,-0.401611328125,-0.0751953125,1.80053710938,0.595092773438,-0.0534057617188
1534594342.910.935546875,-0.3994140625,-0.081787109375,1.66320800781,0.213623046875,0.0686645507812
1534594342.910.93798828125,-0.39794921875,-0.07958984375,1.5869140625,0.54931640625,-0.091552734375
1534594342.910.93701171875,-0.399658203125,-0.08642578125,1.60980224609,0.656127929688,-0.373840332031
1534594342.910.9365234375,-0.40087890625,-0.082763671875,1.65557861328,0.465393066406,-0.350952148438
1534594342.920.9365234375,-0.403564453125,-0.0830078125,1.40380859375,0.640869140625,-0.808715820312
1534594342.920.93798828125,-0.400390625,-0.0771484375,1.29699707031,0.534057617188,-0.541687011719
1534594342.920.93701171875,-0.40380859375,-0.077392578125,1.54876708984,0.389099121094,-0.770568847656
1534594342.920.9384765625,-0.39990234375,-0.0810546875,1.35040283203,0.282287597656,-0.885009765625
1534594342.930.935302734375,-0.40185546875,-0.0849609375,1.47247314453,0.343322753906,-0.877380371094
1534594342.930.9375,-0.40283203125,-0.082275390625,1.43432617188,0.411987304688,-0.778198242188
1534594342.930.936279296875,-0.40185546875,-0.0908203125,1.41143798828,0.320434570312,-0.495910644531
1534594342.940.93359375,-0.401611328125,-0.078125,1.60980224609,0.419616699219,-0.328063964844
1534594342.940.940673828125,-0.399169921875,-0.085205078125,1.62506103516,0.541687011719,-0.0839233398438
1534594342.940.93701171875,-0.39990234375,-0.082763671875,1.84631347656,0.526428222656,0.0839233398438
1534594342.950.9345703125,-0.400146484375,-0.079833984375,1.89971923828,0.8544921875,0.213623046875
1534594342.950.933349609375,-0.404541015625,-0.08056640625,1.55639648438,0.54931640625,0.0152587890625
1534594342.950.938720703125,-0.406494140625,-0.08056640625,1.5869140625,0.633239746094,-0.106811523438
1534594342.960.93310546875,-0.399658203125,-0.0830078125,1.60980224609,0.572204589844,-0.297546386719
1534594342.960.936279296875,-0.404052734375,-0.0810546875,1.50299072266,0.640869140625,-0.320434570312
1534594342.970.937744140625,-0.39990234375,-0.077392578125,1.26647949219,0.389099121094,-0.877380371094
1534594342.970.936279296875,-0.405029296875,-0.080322265625,1.36566162109,0.289916992188,-0.839233398438
1534594342.980.932861328125,-0.40283203125,-0.07861328125,1.45721435547,0.450134277344,-0.686645507812
1534594342.980.94091796875,-0.400634765625,-0.080810546875,1.63269042969,0.747680664062,-0.450134277344
1534594342.990.9345703125,-0.39892578125,-0.0849609375,1.51824951172,0.534057617188,-0.221252441406
1534594342.990.93896484375,-0.39697265625,-0.0771484375,1.84631347656,0.442504882812,-0.0228881835938
1534594342.990.935791015625,-0.401123046875,-0.0830078125,1.70135498047,0.640869140625,0.198364257812
1534594342.990.931640625,-0.39990234375,-0.08203125,1.73950195312,0.686645507812,0.198364257812
1534594343.00.936279296875,-0.39990234375,-0.080078125,1.78527832031,0.778198242188,0.0534057617188
1534594343.00.93310546875,-0.398193359375,-0.08349609375,1.77764892578,0.648498535156,-0.0991821289062
1534594343.00.93212890625,-0.402587890625,-0.0791015625,1.75476074219,0.656127929688,-0.198364257812
1534594343.010.936767578125,-0.404296875,-0.07958984375,1.62506103516,0.572204589844,0.129699707031
1534594343.010.9375,-0.39892578125,-0.0751953125,1.60980224609,0.457763671875,-0.450134277344
1534594343.010.93359375,-0.40087890625,-0.08251953125,1.32751464844,0.602722167969,-0.633239746094
1534594343.010.9326171875,-0.39990234375,-0.08154296875,1.44195556641,0.572204589844,-0.839233398438
1534594343.020.942138671875,-0.39794921875,-0.08203125,1.35803222656,0.335693359375,-0.885009765625
1534594343.020.937255859375,-0.399169921875,-0.074951171875,1.15966796875,0.267028808594,-0.9765625
1534594343.020.939453125,-0.404541015625,-0.078125,1.53350830078,0.1220703125,-1.00708007812
1534594343.030.9365234375,-0.3984375,-0.08447265625,1.44958496094,0.587463378906,-0.656127929688
1534594343.030.93603515625,-0.39990234375,-0.08056640625,1.31225585938,0.373840332031,-0.679016113281
1534594343.030.937255859375,-0.4013671875,-0.084716796875,1.50299072266,0.282287597656,0.06103515625
1534594343.040.93701171875,-0.40380859375,-0.08349609375,1.39617919922,0.732421875,0.259399414062
1534594343.040.937744140625,-0.400634765625,-0.0869140625,1.80816650391,0.679016113281,0.213623046875
1534594343.050.937744140625,-0.4033203125,-0.082763671875,1.56402587891,0.67138671875,0.190734863281
1534594343.050.932861328125,-0.4052734375,-0.0751953125,2.12860107422,0.48828125,0.030517578125
1534594343.050.936279296875,-0.402099609375,-0.0751953125,1.36566162109,0.602722167969,-0.0991821289062
1534594343.060.93701171875,-0.400634765625,-0.08154296875,1.59454345703,0.3662109375,-0.389099121094
1534594343.060.931640625,-0.40087890625,-0.077880859375,1.44195556641,0.511169433594,-0.709533691406
1534594343.060.93701171875,-0.39990234375,-0.07861328125,1.77764892578,0.48828125,-0.816345214844
1534594343.060.93701171875,-0.402587890625,-0.082275390625,0.9765625,0.617980957031,-0.778198242188
1534594343.060.937744140625,-0.401611328125,-0.083251953125,1.45721435547,0.251770019531,-0.79345703125
1534594343.070.937744140625,-0.399658203125,-0.080078125,1.23596191406,0.0457763671875,-0.839233398438
1534594343.070.94189453125,-0.398193359375,-0.081787109375,1.15966796875,0.587463378906,-0.8544921875
1534594343.080.9375,-0.401611328125,-0.0810546875,1.40380859375,0.419616699219,-0.923156738281
1534594343.080.939697265625,-0.400634765625,-0.08203125,1.30462646484,0.541687011719,-0.572204589844
1534594343.080.9345703125,-0.39794921875,-0.086181640625,1.63269042969,0.617980957031,-0.289916992188
1534594343.090.937744140625,-0.39892578125,-0.08349609375,1.73187255859,0.640869140625,0.1220703125
1534594343.090.936279296875,-0.39892578125,-0.0810546875,1.68609619141,0.961303710938,0.190734863281
1534594343.090.937255859375,-0.402587890625,-0.08251953125,1.60980224609,0.404357910156,0.289916992188
1534594343.10.935791015625,-0.398681640625,-0.085693359375,1.86157226562,0.862121582031,-0.42724609375
1534594343.10.93505859375,-0.399169921875,-0.08837890625,1.65557861328,0.732421875,-0.251770019531
1534594343.10.936279296875,-0.40234375,-0.091064453125,1.78527832031,0.396728515625,-0.167846679688
1534594343.110.93408203125,-0.39892578125,-0.086669921875,1.36566162109,0.42724609375,-0.633239746094
1534594343.110.933837890625,-0.3974609375,-0.080322265625,1.40380859375,0.289916992188,-0.907897949219
1534594343.120.935302734375,-0.3994140625,-0.083251953125,1.47247314453,0.503540039062,-1.02233886719
1534594343.120.938232421875,-0.396484375,-0.07958984375,1.38092041016,0.518798828125,-0.740051269531
1534594343.130.9365234375,-0.4013671875,-0.0771484375,1.64031982422,0.564575195312,-0.541687011719
1534594343.130.93896484375,-0.39990234375,-0.07861328125,1.45721435547,0.6103515625,-0.42724609375
1534594343.130.936767578125,-0.40380859375,-0.07861328125,1.69372558594,0.625610351562,-0.1220703125
1534594343.130.937744140625,-0.40087890625,-0.085205078125,1.73950195312,0.709533691406,-0.213623046875
1534594343.140.93310546875,-0.3955078125,-0.084228515625,1.64031982422,0.724792480469,0.160217285156
1534594343.140.934814453125,-0.400146484375,-0.082275390625,1.5869140625,0.457763671875,0.137329101562
1534594343.140.9326171875,-0.39599609375,-0.0859375,1.90734863281,0.717163085938,0.267028808594
1534594343.140.933349609375,-0.400146484375,-0.070068359375,1.39617919922,0.747680664062,0.0686645507812
1534594343.150.935302734375,-0.399658203125,-0.077880859375,1.67846679688,0.625610351562,-0.00762939453125
1534594343.150.936279296875,-0.399169921875,-0.083984375,1.5869140625,0.816345214844,-0.160217285156
1534594343.150.937744140625,-0.402587890625,-0.0751953125,1.57928466797,0.495910644531,-0.373840332031
1534594343.160.9384765625,-0.40087890625,-0.080078125,1.47247314453,0.244140625,-0.625610351562
1534594343.160.938720703125,-0.401123046875,-0.083251953125,1.31225585938,0.617980957031,-0.640869140625
1534594343.160.93701171875,-0.39794921875,-0.08154296875,1.41143798828,0.251770019531,-0.755310058594
1534594343.160.93798828125,-0.4033203125,-0.08740234375,1.28173828125,0.587463378906,-1.00708007812
1534594343.170.93798828125,-0.39990234375,-0.0830078125,1.48773193359,0.465393066406,-0.961303710938
1534594343.170.93798828125,-0.39892578125,-0.076904296875,1.42669677734,0.633239746094,-0.762939453125
1534594343.170.9384765625,-0.4013671875,-0.08251953125,1.35803222656,0.373840332031,-0.709533691406
1534594343.180.9375,-0.403564453125,-0.08447265625,1.76239013672,0.358581542969,-0.663757324219
1534594343.180.93798828125,-0.40087890625,-0.080322265625,1.35803222656,0.442504882812,-0.328063964844
1534594343.180.937255859375,-0.39892578125,-0.0810546875,1.953125,0.48828125,0.0
1534594343.190.93115234375,-0.4013671875,-0.083251953125,1.99127197266,0.67138671875,0.0839233398438
1534594343.190.93798828125,-0.398681640625,-0.080322265625,1.61743164062,0.411987304688,0.091552734375
1534594343.190.939697265625,-0.40234375,-0.076416015625,1.66320800781,0.785827636719,0.213623046875
1534594343.20.934814453125,-0.40283203125,-0.07763671875,1.63269042969,0.350952148438,-0.282287597656
1534594343.20.935791015625,-0.401123046875,-0.076416015625,1.45721435547,0.701904296875,-0.526428222656
1534594343.20.93896484375,-0.400634765625,-0.078369140625,1.30462646484,0.480651855469,-0.617980957031
1534594343.210.936767578125,-0.399169921875,-0.086181640625,1.31225585938,0.54931640625,-0.701904296875
1534594343.210.937744140625,-0.402587890625,-0.08203125,0.946044921875,0.419616699219,-0.907897949219
1534594343.220.9375,-0.397216796875,-0.082275390625,1.35040283203,0.282287597656,-1.04522705078
1534594343.220.932861328125,-0.401611328125,-0.080078125,1.44195556641,0.274658203125,-0.808715820312
1534594343.220.9375,-0.400634765625,-0.078125,1.44958496094,0.473022460938,-0.30517578125
1534594343.230.933837890625,-0.39990234375,-0.081298828125,1.45721435547,0.267028808594,-0.3662109375
1534594343.230.9443359375,-0.399658203125,-0.0869140625,1.60217285156,0.396728515625,0.0457763671875
1534594343.230.9375,-0.39794921875,-0.083251953125,1.71661376953,0.602722167969,0.091552734375
1534594343.240.938720703125,-0.401611328125,-0.07763671875,1.39617919922,0.762939453125,0.0152587890625
1534594343.240.936279296875,-0.39697265625,-0.08447265625,1.35040283203,0.526428222656,0.0228881835938
1534594343.240.934814453125,-0.400390625,-0.084716796875,1.53350830078,0.602722167969,-0.137329101562
1534594343.250.93212890625,-0.403564453125,-0.080322265625,1.53350830078,0.396728515625,-0.244140625
1534594343.250.936767578125,-0.402587890625,-0.084716796875,1.33514404297,0.282287597656,-0.526428222656
1534594343.250.93505859375,-0.399658203125,-0.08642578125,1.59454345703,0.79345703125,-0.67138671875
1534594343.250.936279296875,-0.401123046875,-0.083740234375,1.59454345703,0.503540039062,-0.846862792969
1534594343.260.931884765625,-0.399169921875,-0.085693359375,1.36566162109,0.534057617188,-0.709533691406
1534594343.260.935791015625,-0.40185546875,-0.08447265625,1.48773193359,0.473022460938,-0.968933105469
1534594343.260.942138671875,-0.398681640625,-0.089599609375,1.16729736328,0.54931640625,-1.03759765625
1534594343.270.935302734375,-0.400634765625,-0.0791015625,1.41906738281,0.396728515625,-0.740051269531
1534594343.280.93408203125,-0.40087890625,-0.08203125,1.50299072266,0.679016113281,-0.411987304688
1534594343.280.93505859375,-0.39990234375,-0.082275390625,1.44195556641,0.640869140625,-0.267028808594
1534594343.280.93505859375,-0.398681640625,-0.079833984375,1.93786621094,0.556945800781,0.0991821289062
1534594343.290.9375,-0.402587890625,-0.08056640625,1.71661376953,0.709533691406,-0.030517578125
1534594343.290.9375,-0.402099609375,-0.0810546875,1.57165527344,0.564575195312,0.0
1534594343.290.935546875,-0.408447265625,-0.086181640625,1.68609619141,0.602722167969,-0.205993652344
1534594343.290.9326171875,-0.397705078125,-0.08447265625,1.44958496094,0.953674316406,-0.297546386719
1534594343.30.9345703125,-0.400634765625,-0.0888671875,1.40380859375,0.572204589844,-0.465393066406
1534594343.30.932861328125,-0.40380859375,-0.082763671875,1.33514404297,0.6103515625,-0.289916992188
1534594343.30.937744140625,-0.397705078125,-0.0869140625,1.50299072266,0.48828125,-0.579833984375
1534594343.30.933349609375,-0.401123046875,-0.080078125,1.60980224609,0.450134277344,-0.831604003906
1534594343.310.93505859375,-0.401123046875,-0.083984375,1.44958496094,0.656127929688,-0.762939453125
1534594343.310.940673828125,-0.3994140625,-0.08056640625,1.29699707031,0.381469726562,-0.79345703125
1534594343.310.937744140625,-0.398681640625,-0.074462890625,1.47247314453,0.259399414062,-0.770568847656
1534594343.320.939208984375,-0.397705078125,-0.07763671875,1.38854980469,0.686645507812,-0.625610351562
1534594343.320.933837890625,-0.3994140625,-0.082763671875,1.74713134766,0.564575195312,-0.541687011719
1534594343.320.9375,-0.400146484375,-0.084716796875,1.53350830078,0.526428222656,-0.465393066406
1534594343.330.9375,-0.403076171875,-0.0859375,1.57928466797,0.503540039062,0.1220703125
1534594343.330.937744140625,-0.396240234375,-0.08203125,1.77764892578,0.312805175781,0.0762939453125
1534594343.330.935791015625,-0.402099609375,-0.083984375,1.80816650391,0.572204589844,0.0686645507812
1534594343.340.934814453125,-0.40087890625,-0.080322265625,1.71661376953,0.663757324219,-0.152587890625
1534594343.340.93505859375,-0.40283203125,-0.078369140625,1.50299072266,0.579833984375,-0.328063964844
1534594343.350.936767578125,-0.397705078125,-0.080078125,1.86157226562,0.564575195312,-0.534057617188
1534594343.350.9365234375,-0.400634765625,-0.0810546875,1.57165527344,0.495910644531,-0.541687011719
1534594343.350.937255859375,-0.39990234375,-0.07666015625,1.35040283203,0.18310546875,-0.907897949219
1534594343.360.935302734375,-0.4033203125,-0.082763671875,1.25122070312,0.48828125,-0.91552734375
1534594343.360.935302734375,-0.40234375,-0.0859375,1.24359130859,0.572204589844,-0.541687011719
1534594343.360.9365234375,-0.398681640625,-0.08251953125,1.41906738281,0.389099121094,-0.984191894531
1534594343.360.93359375,-0.396240234375,-0.08740234375,1.64031982422,0.457763671875,-0.846862792969
1534594343.370.93603515625,-0.399658203125,-0.08349609375,1.44958496094,0.198364257812,-0.808715820312
1534594343.370.93603515625,-0.40283203125,-0.083740234375,1.35803222656,0.457763671875,-0.30517578125
1534594343.370.9365234375,-0.3994140625,-0.082763671875,1.68609619141,0.709533691406,-0.160217285156
1534594343.380.937744140625,-0.398681640625,-0.08251953125,1.67083740234,0.404357910156,-0.190734863281
1534594343.380.939453125,-0.398681640625,-0.079833984375,1.80053710938,0.518798828125,-0.00762939453125
1534594343.390.931396484375,-0.395751953125,-0.084716796875,1.69372558594,0.42724609375,-0.0457763671875
1534594343.390.935791015625,-0.401123046875,-0.08203125,1.78527832031,0.465393066406,-0.328063964844
1534594343.390.934814453125,-0.4013671875,-0.0830078125,1.37329101562,0.579833984375,-0.534057617188
1534594343.390.933837890625,-0.397705078125,-0.086181640625,1.46484375,0.518798828125,-0.442504882812
1534594343.40.937255859375,-0.3984375,-0.07958984375,1.19018554688,0.358581542969,-0.717163085938
1534594343.40.934814453125,-0.39892578125,-0.080810546875,1.28173828125,0.30517578125,-0.518798828125
1534594343.40.935302734375,-0.401123046875,-0.079833984375,1.220703125,0.587463378906,-0.999450683594
1534594343.40.93896484375,-0.39892578125,-0.07861328125,1.30462646484,0.205993652344,-0.816345214844
1534594343.410.93798828125,-0.40185546875,-0.085205078125,1.35040283203,0.556945800781,-0.747680664062
1534594343.410.936279296875,-0.397705078125,-0.085205078125,1.31988525391,0.656127929688,-0.846862792969
1534594343.420.938232421875,-0.398681640625,-0.081298828125,1.56402587891,0.816345214844,-0.190734863281
1534594343.420.937744140625,-0.398681640625,-0.078369140625,1.68609619141,0.801086425781,-0.175476074219
1534594343.430.932373046875,-0.400390625,-0.08349609375,1.84631347656,0.656127929688,0.0381469726562
1534594343.430.93359375,-0.3994140625,-0.0849609375,1.64031982422,0.404357910156,0.18310546875
1534594343.430.9375,-0.400146484375,-0.084716796875,1.71661376953,0.625610351562,0.0152587890625
1534594343.430.9326171875,-0.40087890625,-0.077392578125,1.71661376953,0.663757324219,0.00762939453125
1534594343.440.937255859375,-0.400146484375,-0.083984375,1.60217285156,0.534057617188,-0.289916992188
1534594343.440.935791015625,-0.402099609375,-0.08349609375,1.59454345703,0.564575195312,-0.404357910156
1534594343.440.939453125,-0.4033203125,-0.078857421875,1.31988525391,0.717163085938,-0.42724609375
1534594343.450.9345703125,-0.400390625,-0.079833984375,1.36566162109,0.602722167969,-0.67138671875
1534594343.450.936279296875,-0.399169921875,-0.079833984375,1.28936767578,0.335693359375,-1.00708007812
1534594343.450.93798828125,-0.40283203125,-0.079345703125,1.3427734375,0.389099121094,-1.10626220703
1534594343.450.93603515625,-0.39794921875,-0.078857421875,1.26647949219,0.267028808594,-0.640869140625
1534594343.460.93701171875,-0.399169921875,-0.077392578125,1.46484375,0.42724609375,-0.701904296875
1534594343.460.937744140625,-0.3984375,-0.07666015625,1.43432617188,0.526428222656,-0.534057617188
1534594343.460.937744140625,-0.400634765625,-0.087890625,1.51824951172,0.54931640625,-0.419616699219
1534594343.470.937255859375,-0.399169921875,-0.085693359375,1.41906738281,0.732421875,-0.114440917969
1534594343.470.93896484375,-0.39794921875,-0.082763671875,1.64031982422,0.633239746094,0.091552734375
1534594343.470.940185546875,-0.3974609375,-0.079833984375,1.51824951172,0.617980957031,0.312805175781
1534594343.480.9365234375,-0.403076171875,-0.080322265625,1.59454345703,0.572204589844,0.0991821289062
1534594343.480.93310546875,-0.40087890625,-0.077880859375,1.57928466797,0.724792480469,-0.00762939453125
1534594343.480.9365234375,-0.402099609375,-0.074462890625,1.50299072266,0.656127929688,-0.167846679688
1534594343.490.9384765625,-0.3994140625,-0.079833984375,1.51824951172,0.572204589844,-0.0228881835938
1534594343.490.93310546875,-0.403076171875,-0.083251953125,1.63269042969,0.495910644531,-0.579833984375
1534594343.50.932861328125,-0.399658203125,-0.078369140625,1.31225585938,0.289916992188,-0.831604003906
1534594343.50.9375,-0.401123046875,-0.087646484375,1.41906738281,0.221252441406,-0.991821289062
1534594343.50.9365234375,-0.396728515625,-0.07958984375,1.57928466797,0.404357910156,-0.823974609375
1534594343.510.9375,-0.39990234375,-0.076904296875,1.24359130859,0.343322753906,-0.923156738281
1534594343.510.93359375,-0.3994140625,-0.085693359375,1.54876708984,0.572204589844,-0.808715820312
1534594343.510.9375,-0.402099609375,-0.08251953125,1.49536132812,0.579833984375,-0.503540039062
1534594343.510.939453125,-0.40087890625,-0.08203125,1.76239013672,0.6103515625,-0.450134277344
1534594343.520.934326171875,-0.401123046875,-0.08251953125,1.48773193359,0.48828125,-0.350952148438
1534594343.520.935302734375,-0.40283203125,-0.078857421875,1.60217285156,0.404357910156,-0.160217285156
1534594343.520.938232421875,-0.404296875,-0.081298828125,1.69372558594,0.694274902344,-0.114440917969
1534594343.530.935546875,-0.39892578125,-0.0791015625,1.77001953125,0.686645507812,0.244140625
1534594343.530.936767578125,-0.401611328125,-0.08056640625,1.84631347656,0.518798828125,0.137329101562
1534594343.530.940673828125,-0.4013671875,-0.079833984375,1.60980224609,0.686645507812,-0.0762939453125
1534594343.540.932861328125,-0.398193359375,-0.084716796875,1.43432617188,0.411987304688,-0.381469726562
1534594343.540.9365234375,-0.39501953125,-0.077392578125,1.57928466797,0.587463378906,-0.404357910156
1534594343.540.937744140625,-0.400390625,-0.078125,1.42669677734,0.48828125,-0.846862792969
1534594343.550.933349609375,-0.396728515625,-0.0791015625,1.15966796875,0.144958496094,-1.01470947266
1534594343.550.931640625,-0.3974609375,-0.08203125,0.892639160156,0.434875488281,-0.9765625
1534594343.560.93505859375,-0.39794921875,-0.082275390625,1.42669677734,0.320434570312,-1.04522705078
1534594343.560.9375,-0.3994140625,-0.08154296875,1.50299072266,0.442504882812,-0.48828125
1534594343.560.9384765625,-0.397705078125,-0.07763671875,1.27410888672,0.411987304688,-0.282287597656
1534594343.570.936767578125,-0.402099609375,-0.08203125,1.69372558594,0.709533691406,-0.1220703125
1534594343.570.93603515625,-0.399169921875,-0.088623046875,1.77764892578,0.648498535156,0.0686645507812
1534594343.570.93896484375,-0.397705078125,-0.076171875,1.86157226562,0.740051269531,0.00762939453125
1534594343.580.93359375,-0.39599609375,-0.082275390625,1.61743164062,0.694274902344,-0.205993652344
1534594343.580.9365234375,-0.39794921875,-0.0849609375,1.54876708984,0.808715820312,0.259399414062
1534594343.580.933349609375,-0.40234375,-0.083251953125,1.51062011719,0.91552734375,-0.0228881835938
1534594343.580.931396484375,-0.396240234375,-0.079345703125,1.69372558594,0.762939453125,-0.0381469726562
1534594343.590.932373046875,-0.40185546875,-0.0771484375,1.64794921875,0.648498535156,-0.312805175781
1534594343.590.93896484375,-0.3974609375,-0.0849609375,1.41143798828,0.595092773438,-0.511169433594
1534594343.590.935546875,-0.40087890625,-0.082763671875,1.30462646484,0.480651855469,-0.503540039062
1534594343.60.932861328125,-0.39794921875,-0.075927734375,1.77001953125,0.373840332031,-0.724792480469
1534594343.60.934326171875,-0.396484375,-0.083740234375,1.41906738281,0.419616699219,-0.968933105469
1534594343.60.936767578125,-0.403076171875,-0.081298828125,1.64031982422,0.106811523438,-0.991821289062
1534594343.610.936767578125,-0.3974609375,-0.080322265625,1.25885009766,0.541687011719,-0.686645507812
1534594343.610.938232421875,-0.3994140625,-0.078369140625,1.55639648438,0.717163085938,-0.617980957031
1534594343.610.934814453125,-0.3994140625,-0.08203125,1.54876708984,0.358581542969,-0.518798828125
1534594343.620.933837890625,-0.399658203125,-0.07763671875,1.72424316406,0.495910644531,-0.114440917969
1534594343.620.936767578125,-0.399169921875,-0.088134765625,1.85394287109,0.762939453125,-0.213623046875
1534594343.630.938232421875,-0.400146484375,-0.080810546875,1.71661376953,0.732421875,0.00762939453125
1534594343.630.9375,-0.40087890625,-0.083251953125,1.60217285156,0.465393066406,0.0991821289062
1534594343.630.937744140625,-0.399658203125,-0.087646484375,1.708984375,0.541687011719,0.06103515625
1534594343.630.935546875,-0.395263671875,-0.082763671875,1.38854980469,0.480651855469,-0.381469726562
1534594343.640.9365234375,-0.397705078125,-0.084228515625,1.60217285156,0.648498535156,-0.244140625
1534594343.640.932373046875,-0.40185546875,-0.08056640625,1.53350830078,0.42724609375,-0.564575195312
1534594343.640.933837890625,-0.398681640625,-0.08203125,1.35803222656,0.686645507812,-0.663757324219
1534594343.650.940185546875,-0.4013671875,-0.086669921875,1.25885009766,0.503540039062,-0.755310058594
1534594343.650.937255859375,-0.399658203125,-0.075927734375,1.29699707031,0.328063964844,-0.877380371094
1534594343.650.936767578125,-0.399658203125,-0.089111328125,1.55639648438,0.236511230469,-0.801086425781
1534594343.660.9375,-0.401123046875,-0.0791015625,1.37329101562,0.587463378906,-0.602722167969
1534594343.660.9345703125,-0.39501953125,-0.086181640625,1.50299072266,0.396728515625,-0.320434570312
1534594343.660.93701171875,-0.402099609375,-0.08056640625,1.63269042969,0.473022460938,-0.244140625
1534594343.660.934326171875,-0.398681640625,-0.079833984375,1.57165527344,0.404357910156,-0.328063964844
1534594343.670.940185546875,-0.399658203125,-0.083740234375,1.40380859375,0.48828125,-0.0839233398438
1534594343.670.93896484375,-0.40283203125,-0.0849609375,1.44958496094,0.946044921875,-0.106811523438
1534594343.680.9384765625,-0.399658203125,-0.075927734375,1.67846679688,0.404357910156,0.0762939453125
1534594343.680.937744140625,-0.40234375,-0.076416015625,1.71661376953,0.457763671875,-0.091552734375
1534594343.680.933837890625,-0.39697265625,-0.075439453125,1.72424316406,0.679016113281,-0.328063964844
1534594343.690.933349609375,-0.403076171875,-0.08349609375,1.44195556641,0.602722167969,-0.221252441406
1534594343.690.937255859375,-0.3994140625,-0.086181640625,1.56402587891,0.335693359375,-0.717163085938
1534594343.690.93408203125,-0.399658203125,-0.082275390625,1.38092041016,0.221252441406,-0.534057617188
1534594343.70.93896484375,-0.399658203125,-0.07958984375,1.40380859375,0.213623046875,-0.541687011719
1534594343.710.93798828125,-0.398681640625,-0.08447265625,1.67846679688,0.343322753906,-0.79345703125
1534594343.710.939697265625,-0.399658203125,-0.0791015625,1.21307373047,0.663757324219,-0.236511230469
1534594343.710.937255859375,-0.39697265625,-0.078369140625,1.68609619141,0.328063964844,-0.320434570312
1534594343.720.93798828125,-0.3984375,-0.07763671875,1.47247314453,0.709533691406,-0.259399414062
1534594343.720.935302734375,-0.39990234375,-0.079345703125,1.79290771484,0.602722167969,-0.129699707031
1534594343.720.933349609375,-0.400390625,-0.079345703125,1.48773193359,0.495910644531,0.1220703125
1534594343.720.939208984375,-0.401123046875,-0.080810546875,1.51062011719,0.900268554688,-0.030517578125
1534594343.730.934814453125,-0.401123046875,-0.07958984375,1.88446044922,0.732421875,-0.137329101562
1534594343.730.935546875,-0.39794921875,-0.081298828125,1.56402587891,0.6103515625,0.06103515625
1534594343.730.9365234375,-0.405029296875,-0.08251953125,1.49536132812,0.541687011719,-0.320434570312
1534594343.730.935302734375,-0.40234375,-0.08447265625,1.57928466797,0.595092773438,-0.335693359375
1534594343.740.938232421875,-0.40087890625,-0.0830078125,1.36566162109,0.350952148438,-0.511169433594
1534594343.740.937744140625,-0.400634765625,-0.0830078125,1.60217285156,0.320434570312,-0.503540039062
1534594343.740.933837890625,-0.398193359375,-0.08203125,1.38092041016,0.465393066406,-0.747680664062
1534594343.750.938720703125,-0.402587890625,-0.0791015625,1.46484375,0.640869140625,-0.846862792969
1534594343.750.93212890625,-0.396484375,-0.079345703125,1.42669677734,0.404357910156,-0.595092773438
1534594343.750.9365234375,-0.4013671875,-0.08447265625,1.42669677734,0.480651855469,-0.648498535156
1534594343.760.9345703125,-0.40283203125,-0.085205078125,1.46484375,0.495910644531,-0.534057617188
1534594343.760.935546875,-0.40234375,-0.079345703125,1.63269042969,0.778198242188,-0.312805175781
1534594343.760.9375,-0.400146484375,-0.084716796875,1.57928466797,0.740051269531,-0.137329101562
1534594343.770.93359375,-0.400146484375,-0.0859375,1.76239013672,0.633239746094,-0.320434570312
1534594343.770.9345703125,-0.397705078125,-0.08447265625,1.64794921875,0.541687011719,0.106811523438
1534594343.780.935546875,-0.399169921875,-0.07958984375,1.60217285156,0.434875488281,-0.274658203125
1534594343.780.93701171875,-0.398193359375,-0.0810546875,1.47247314453,0.495910644531,-0.381469726562
1534594343.780.9365234375,-0.401123046875,-0.08642578125,1.43432617188,0.511169433594,-0.511169433594
1534594343.790.940673828125,-0.396240234375,-0.084228515625,1.35040283203,0.6103515625,-0.572204589844
1534594343.790.93994140625,-0.40087890625,-0.080322265625,1.51062011719,0.480651855469,-0.526428222656
1534594343.790.935546875,-0.400634765625,-0.076416015625,1.38092041016,0.465393066406,-0.732421875
1534594343.80.938720703125,-0.399658203125,-0.086669921875,1.37329101562,0.396728515625,-0.679016113281
1534594343.80.936279296875,-0.39794921875,-0.078857421875,1.52587890625,0.717163085938,-0.434875488281
1534594343.810.93701171875,-0.393310546875,-0.085693359375,1.47247314453,0.381469726562,-0.396728515625
1534594343.810.937744140625,-0.402099609375,-0.078857421875,1.708984375,0.709533691406,-0.404357910156
1534594343.810.93505859375,-0.3984375,-0.081787109375,1.71661376953,0.656127929688,-0.0762939453125
1534594343.820.9375,-0.401611328125,-0.077392578125,1.76239013672,0.648498535156,-0.282287597656
1534594343.820.934814453125,-0.398681640625,-0.084716796875,1.61743164062,0.778198242188,-0.0228881835938
1534594343.820.935791015625,-0.397216796875,-0.087890625,1.55639648438,0.312805175781,-0.213623046875
1534594343.820.933349609375,-0.39794921875,-0.077392578125,1.30462646484,0.564575195312,-0.0457763671875
1534594343.830.93994140625,-0.39892578125,-0.07861328125,1.77764892578,0.717163085938,-0.244140625
1534594343.830.93701171875,-0.397705078125,-0.07421875,1.48010253906,0.419616699219,-0.228881835938
1534594343.830.9375,-0.398193359375,-0.078857421875,1.30462646484,0.358581542969,-0.54931640625
1534594343.840.93603515625,-0.403076171875,-0.08154296875,1.60217285156,0.3662109375,-0.640869140625
1534594343.840.93505859375,-0.397216796875,-0.0791015625,1.38092041016,0.48828125,-0.869750976562
1534594343.850.932861328125,-0.399169921875,-0.077880859375,1.42669677734,0.213623046875,-0.473022460938
1534594343.850.93505859375,-0.39990234375,-0.079345703125,1.44195556641,0.686645507812,-0.686645507812
1534594343.850.93603515625,-0.3974609375,-0.078857421875,1.64031982422,0.450134277344,-0.30517578125
1534594343.860.9365234375,-0.3994140625,-0.08154296875,1.54876708984,0.663757324219,-0.335693359375
1534594343.860.937744140625,-0.39892578125,-0.081298828125,1.80053710938,0.511169433594,-0.0686645507812
1534594343.860.934326171875,-0.399658203125,-0.076171875,1.46484375,0.801086425781,-0.144958496094
1534594343.870.93896484375,-0.398681640625,-0.08251953125,1.59454345703,0.602722167969,-0.205993652344
1534594343.870.934814453125,-0.399658203125,-0.07958984375,1.67846679688,0.518798828125,-0.473022460938
1534594343.870.9375,-0.39990234375,-0.0888671875,1.38854980469,0.457763671875,-0.030517578125
1534594343.870.93505859375,-0.3994140625,-0.07958984375,1.54876708984,0.587463378906,-0.236511230469
1534594343.880.93310546875,-0.400634765625,-0.089599609375,1.39617919922,0.335693359375,-0.274658203125
1534594343.880.93798828125,-0.39892578125,-0.08251953125,1.61743164062,0.411987304688,-0.511169433594
1534594343.880.936279296875,-0.401611328125,-0.08349609375,1.39617919922,0.595092773438,-0.30517578125
1534594343.890.937255859375,-0.39990234375,-0.0849609375,1.36566162109,0.282287597656,-0.686645507812
1534594343.890.938720703125,-0.399658203125,-0.0849609375,1.51824951172,0.396728515625,-0.79345703125
1534594343.890.935302734375,-0.400390625,-0.080810546875,1.51824951172,0.709533691406,-0.579833984375
1534594343.90.93701171875,-0.400146484375,-0.078857421875,1.55639648438,0.686645507812,-0.617980957031
1534594343.90.937255859375,-0.40234375,-0.07861328125,1.25122070312,0.633239746094,-0.442504882812
1534594343.90.9384765625,-0.399658203125,-0.082763671875,1.68609619141,0.381469726562,-0.434875488281
1534594343.910.934326171875,-0.3984375,-0.077880859375,1.68609619141,0.617980957031,-0.221252441406
1534594343.910.9326171875,-0.400634765625,-0.078857421875,1.60217285156,0.396728515625,-0.144958496094
1534594343.910.936279296875,-0.40087890625,-0.079345703125,1.59454345703,0.556945800781,-0.091552734375
1534594343.920.934326171875,-0.3994140625,-0.079833984375,1.41143798828,0.564575195312,-0.114440917969
1534594343.920.936767578125,-0.400634765625,-0.084228515625,1.71661376953,0.709533691406,-0.18310546875
1534594343.920.938232421875,-0.396728515625,-0.083251953125,1.57928466797,0.930786132812,-0.0686645507812
1534594343.930.933837890625,-0.400390625,-0.08544921875,1.48010253906,0.526428222656,-0.411987304688
1534594343.930.93603515625,-0.398193359375,-0.08203125,1.50299072266,0.595092773438,-0.701904296875
1534594343.930.938720703125,-0.400390625,-0.07666015625,1.42669677734,0.526428222656,-0.732421875
1534594343.940.934814453125,-0.40185546875,-0.087646484375,1.37329101562,0.396728515625,-0.91552734375
1534594343.940.93994140625,-0.398193359375,-0.0830078125,1.60980224609,0.648498535156,-0.762939453125
1534594343.950.936279296875,-0.401611328125,-0.07958984375,1.26647949219,0.503540039062,-0.48828125
1534594343.950.941162109375,-0.402099609375,-0.080322265625,1.53350830078,0.411987304688,-0.244140625
1534594343.950.93994140625,-0.400146484375,-0.08642578125,1.44958496094,0.526428222656,-0.160217285156
1534594343.950.9375,-0.40234375,-0.088134765625,1.60980224609,0.503540039062,-0.167846679688
1534594343.960.93896484375,-0.397216796875,-0.08544921875,1.51824951172,0.526428222656,-0.0991821289062
1534594343.960.931884765625,-0.39892578125,-0.08642578125,1.47247314453,0.747680664062,0.213623046875
1534594343.970.93994140625,-0.399169921875,-0.086181640625,1.67083740234,0.663757324219,-0.091552734375
1534594343.970.935546875,-0.40185546875,-0.0791015625,1.33514404297,0.67138671875,-0.434875488281
1534594343.970.934326171875,-0.399169921875,-0.081787109375,1.62506103516,0.518798828125,-0.404357910156
1534594343.980.9375,-0.398193359375,-0.080322265625,1.49536132812,0.442504882812,-0.595092773438
1534594343.980.939208984375,-0.402099609375,-0.082763671875,1.67083740234,0.587463378906,-0.541687011719
1534594343.980.93603515625,-0.404052734375,-0.083251953125,1.31225585938,0.228881835938,-0.839233398438
1534594343.990.935791015625,-0.400146484375,-0.08349609375,1.29699707031,0.389099121094,-0.732421875
1534594343.990.939453125,-0.39990234375,-0.080322265625,1.41906738281,0.442504882812,-0.694274902344
1534594344.00.933349609375,-0.399169921875,-0.073974609375,1.39617919922,0.648498535156,-0.419616699219
1534594344.010.939697265625,-0.400146484375,-0.084716796875,1.44958496094,0.67138671875,-0.205993652344
1534594344.010.9345703125,-0.404052734375,-0.084228515625,1.80816650391,0.564575195312,0.091552734375
1534594344.010.93408203125,-0.40185546875,-0.085205078125,1.48010253906,0.556945800781,-0.320434570312
1534594344.010.93505859375,-0.404052734375,-0.0849609375,1.75476074219,0.457763671875,-0.160217285156
1534594344.020.934326171875,-0.40234375,-0.084228515625,1.51062011719,0.839233398438,-0.18310546875
1534594344.020.93603515625,-0.4013671875,-0.08056640625,1.38854980469,0.144958496094,-0.511169433594
1534594344.020.9365234375,-0.402099609375,-0.0810546875,1.73187255859,0.67138671875,-0.320434570312
1534594344.030.931396484375,-0.404541015625,-0.08056640625,1.28173828125,0.541687011719,-0.732421875
1534594344.030.939453125,-0.402099609375,-0.08251953125,1.47247314453,0.679016113281,-0.434875488281
1534594344.030.941162109375,-0.399658203125,-0.08056640625,1.52587890625,0.373840332031,-0.67138671875
1534594344.030.9326171875,-0.40478515625,-0.082763671875,1.38854980469,0.3662109375,-0.747680664062
1534594344.040.9375,-0.400634765625,-0.08154296875,1.36566162109,0.457763671875,-0.724792480469
1534594344.040.939697265625,-0.401123046875,-0.077392578125,1.51824951172,0.236511230469,-0.831604003906
1534594344.040.935302734375,-0.402587890625,-0.078369140625,1.28936767578,0.587463378906,-0.389099121094
1534594344.050.939208984375,-0.40087890625,-0.078125,1.57165527344,0.42724609375,-0.396728515625
1534594344.050.93994140625,-0.397216796875,-0.083984375,1.32751464844,0.816345214844,-0.411987304688
1534594344.050.93212890625,-0.396484375,-0.08935546875,1.65557861328,0.442504882812,-0.373840332031
1534594344.060.935546875,-0.401123046875,-0.08154296875,1.61743164062,0.785827636719,-0.091552734375
1534594344.060.935791015625,-0.400634765625,-0.07666015625,1.57928466797,0.572204589844,-0.1220703125
1534594344.060.93701171875,-0.401123046875,-0.082275390625,1.53350830078,0.862121582031,-0.160217285156
1534594344.070.935302734375,-0.400390625,-0.07763671875,1.60980224609,0.709533691406,-0.18310546875
1534594344.070.93359375,-0.3984375,-0.083984375,1.64031982422,0.679016113281,-0.42724609375
1534594344.070.937744140625,-0.402587890625,-0.083984375,1.46484375,0.511169433594,-0.526428222656
1534594344.080.93701171875,-0.400146484375,-0.086181640625,1.26647949219,0.411987304688,-0.587463378906
1534594344.080.93798828125,-0.404296875,-0.075927734375,1.47247314453,0.411987304688,-0.785827636719
1534594344.080.936767578125,-0.402587890625,-0.080078125,1.06048583984,0.564575195312,-0.686645507812
1534594344.090.9345703125,-0.40283203125,-0.0859375,1.51062011719,0.6103515625,-0.686645507812
1534594344.090.93505859375,-0.3984375,-0.072509765625,1.29699707031,0.625610351562,-0.6103515625
1534594344.10.937744140625,-0.399169921875,-0.0849609375,1.65557861328,0.42724609375,-0.289916992188
1534594344.10.93408203125,-0.399658203125,-0.0810546875,1.51062011719,0.701904296875,-0.328063964844
1534594344.10.935302734375,-0.398681640625,-0.08056640625,1.71661376953,0.373840332031,-0.213623046875
1534594344.10.93408203125,-0.3974609375,-0.081787109375,1.73187255859,0.473022460938,-0.0839233398438
1534594344.110.934326171875,-0.399169921875,-0.074462890625,1.71661376953,0.373840332031,-0.106811523438
1534594344.110.93212890625,-0.401123046875,-0.085205078125,1.55639648438,0.625610351562,-0.0762939453125
1534594344.120.930908203125,-0.39794921875,-0.08056640625,1.57165527344,0.602722167969,-0.518798828125
1534594344.120.9365234375,-0.405517578125,-0.076171875,1.52587890625,0.442504882812,-0.717163085938
1534594344.130.939208984375,-0.4013671875,-0.083740234375,1.30462646484,0.518798828125,-0.6103515625
1534594344.130.936279296875,-0.40087890625,-0.080078125,1.40380859375,0.518798828125,-0.679016113281
1534594344.140.9384765625,-0.397705078125,-0.078369140625,1.31988525391,0.251770019531,-0.747680664062
1534594344.150.93896484375,-0.40087890625,-0.080078125,1.57928466797,0.442504882812,-0.244140625
1534594344.150.9365234375,-0.398681640625,-0.078369140625,1.73950195312,0.511169433594,-0.358581542969
1534594344.150.93603515625,-0.39990234375,-0.081787109375,1.57928466797,0.617980957031,-0.160217285156
1534594344.150.9365234375,-0.3974609375,-0.07958984375,1.52587890625,0.686645507812,-0.228881835938
1534594344.160.935791015625,-0.398193359375,-0.080322265625,1.51824951172,0.640869140625,-0.259399414062
1534594344.160.93701171875,-0.399169921875,-0.0791015625,1.65557861328,0.465393066406,-0.00762939453125
1534594344.160.937255859375,-0.39990234375,-0.080810546875,1.55639648438,0.54931640625,-0.656127929688
1534594344.170.933837890625,-0.3974609375,-0.080078125,1.44195556641,0.251770019531,-0.465393066406
1534594344.170.9365234375,-0.39697265625,-0.082763671875,1.57165527344,0.6103515625,-0.328063964844
1534594344.170.937744140625,-0.398681640625,-0.076904296875,1.41906738281,0.518798828125,-0.518798828125
1534594344.170.93701171875,-0.400146484375,-0.079345703125,1.73187255859,0.602722167969,-0.686645507812
1534594344.180.93798828125,-0.401123046875,-0.084716796875,1.52587890625,0.259399414062,-0.473022460938
1534594344.180.935791015625,-0.400146484375,-0.082763671875,1.41143798828,0.686645507812,-0.6103515625
1534594344.180.93701171875,-0.39990234375,-0.078369140625,1.29699707031,0.442504882812,-0.747680664062
1534594344.190.937744140625,-0.39892578125,-0.078369140625,1.32751464844,0.511169433594,-0.503540039062
1534594344.190.937744140625,-0.3994140625,-0.086669921875,1.42669677734,0.30517578125,-0.396728515625
1534594344.190.933837890625,-0.405517578125,-0.08447265625,1.56402587891,0.457763671875,-0.312805175781
1534594344.20.93701171875,-0.40087890625,-0.08203125,1.52587890625,0.526428222656,-0.411987304688
1534594344.20.934814453125,-0.397705078125,-0.082763671875,1.54876708984,0.770568847656,-0.419616699219
1534594344.20.93701171875,-0.399169921875,-0.086669921875,1.68609619141,0.556945800781,0.0152587890625
1534594344.210.936767578125,-0.39794921875,-0.081298828125,1.67846679688,0.465393066406,-0.198364257812
1534594344.210.93359375,-0.401611328125,-0.08251953125,1.708984375,0.572204589844,-0.213623046875
1534594344.220.935302734375,-0.399658203125,-0.083251953125,1.73187255859,0.434875488281,-0.457763671875
1534594344.220.935302734375,-0.400146484375,-0.0791015625,1.42669677734,0.511169433594,-0.595092773438
1534594344.220.937744140625,-0.402587890625,-0.080322265625,1.19781494141,0.411987304688,-0.503540039062
1534594344.230.94140625,-0.401123046875,-0.084716796875,1.31225585938,0.450134277344,-0.679016113281
1534594344.230.9345703125,-0.397216796875,-0.077392578125,1.44195556641,0.289916992188,-0.640869140625
1534594344.230.93798828125,-0.40087890625,-0.086669921875,1.708984375,0.518798828125,-0.701904296875
1534594344.240.93603515625,-0.404296875,-0.074951171875,1.49536132812,0.450134277344,-0.244140625
1534594344.240.937255859375,-0.400390625,-0.08251953125,1.54113769531,0.564575195312,-0.267028808594
1534594344.240.937255859375,-0.399658203125,-0.084716796875,1.63269042969,0.442504882812,-0.259399414062
1534594344.250.934326171875,-0.39892578125,-0.085205078125,1.59454345703,0.648498535156,0.0534057617188
1534594344.250.93359375,-0.402099609375,-0.081298828125,1.61743164062,0.587463378906,-0.175476074219
1534594344.250.93798828125,-0.399169921875,-0.0830078125,1.64794921875,0.54931640625,-0.160217285156
1534594344.260.93701171875,-0.399658203125,-0.08447265625,1.81579589844,0.724792480469,-0.228881835938
1534594344.260.936767578125,-0.40087890625,-0.0791015625,1.27410888672,0.48828125,-0.450134277344
1534594344.260.93115234375,-0.40283203125,-0.077880859375,1.39617919922,0.381469726562,-0.564575195312
1534594344.260.936767578125,-0.3994140625,-0.080322265625,1.53350830078,0.381469726562,-0.755310058594
1534594344.270.935302734375,-0.401123046875,-0.078857421875,1.27410888672,0.526428222656,-0.617980957031
1534594344.270.935791015625,-0.402099609375,-0.078125,1.41143798828,0.495910644531,-0.740051269531
1534594344.280.937255859375,-0.40185546875,-0.078857421875,1.41906738281,0.450134277344,-0.770568847656
1534594344.280.936767578125,-0.3994140625,-0.07861328125,1.44195556641,0.648498535156,-0.701904296875
1534594344.280.936279296875,-0.39990234375,-0.080322265625,1.40380859375,0.3662109375,-0.633239746094
1534594344.290.936279296875,-0.398681640625,-0.08056640625,1.72424316406,0.518798828125,-0.0457763671875
1534594344.30.93408203125,-0.396484375,-0.0791015625,1.59454345703,0.846862792969,0.0381469726562
1534594344.30.936767578125,-0.3984375,-0.0830078125,1.97601318359,0.579833984375,-0.0457763671875
1534594344.30.936767578125,-0.3984375,-0.0810546875,1.53350830078,0.67138671875,-0.198364257812
1534594344.30.933349609375,-0.39599609375,-0.08447265625,1.68609619141,0.648498535156,-0.3662109375
1534594344.310.937744140625,-0.3984375,-0.084228515625,1.55639648438,0.587463378906,-0.572204589844
1534594344.310.935546875,-0.4052734375,-0.08154296875,1.52587890625,0.572204589844,-0.686645507812
1534594344.310.938232421875,-0.396728515625,-0.079833984375,1.35803222656,0.442504882812,-0.335693359375
1534594344.320.939697265625,-0.403564453125,-0.083251953125,1.66320800781,0.442504882812,-0.801086425781
1534594344.320.935546875,-0.403076171875,-0.081298828125,1.49536132812,0.686645507812,-0.656127929688
1534594344.320.938232421875,-0.400634765625,-0.080810546875,1.25122070312,0.343322753906,-0.877380371094
1534594344.320.94140625,-0.400146484375,-0.0791015625,1.64031982422,0.778198242188,-0.816345214844
1534594344.330.937255859375,-0.400634765625,-0.08349609375,1.44195556641,0.656127929688,-0.694274902344
1534594344.330.941162109375,-0.40380859375,-0.080322265625,1.47247314453,0.587463378906,-0.389099121094
1534594344.330.93798828125,-0.400146484375,-0.0810546875,1.54876708984,0.457763671875,-0.373840332031
1534594344.340.931640625,-0.3994140625,-0.079833984375,1.54876708984,0.42724609375,-0.328063964844
1534594344.340.93896484375,-0.401611328125,-0.081298828125,1.64031982422,0.663757324219,0.0228881835938
1534594344.340.93505859375,-0.400634765625,-0.083984375,1.75476074219,0.411987304688,0.0839233398438
1534594344.350.935791015625,-0.397216796875,-0.081787109375,1.60980224609,0.602722167969,-0.259399414062
1534594344.350.936279296875,-0.39990234375,-0.077880859375,1.48010253906,0.785827636719,-0.114440917969
1534594344.350.936279296875,-0.401611328125,-0.089111328125,1.63269042969,0.434875488281,-0.259399414062
1534594344.360.936767578125,-0.4013671875,-0.08154296875,1.67846679688,0.343322753906,-0.419616699219
1534594344.360.93701171875,-0.401611328125,-0.089599609375,1.26647949219,0.724792480469,-0.640869140625
1534594344.360.933837890625,-0.402587890625,-0.0869140625,1.39617919922,0.350952148438,-0.823974609375
1534594344.360.9365234375,-0.400146484375,-0.079345703125,1.49536132812,0.717163085938,-0.625610351562
1534594344.370.93505859375,-0.402099609375,-0.086181640625,1.47247314453,0.457763671875,-0.785827636719
1534594344.370.942138671875,-0.399658203125,-0.084228515625,1.48010253906,0.648498535156,-0.79345703125
1534594344.370.9365234375,-0.40087890625,-0.0810546875,1.21307373047,0.495910644531,-0.465393066406
1534594344.380.940673828125,-0.398681640625,-0.08203125,1.59454345703,0.320434570312,-0.686645507812
1534594344.380.9365234375,-0.398681640625,-0.085205078125,1.45721435547,0.587463378906,-0.282287597656
1534594344.390.93603515625,-0.39990234375,-0.0859375,1.44958496094,0.541687011719,0.0152587890625
1534594344.390.93896484375,-0.400146484375,-0.0791015625,1.56402587891,0.473022460938,0.274658203125
1534594344.390.93505859375,-0.39892578125,-0.083984375,1.84631347656,0.709533691406,-0.236511230469
1534594344.390.93603515625,-0.399169921875,-0.08056640625,1.82342529297,0.785827636719,-0.0762939453125
1534594344.40.939697265625,-0.399658203125,-0.08203125,1.54113769531,0.724792480469,-0.213623046875
1534594344.40.93408203125,-0.400634765625,-0.08740234375,1.47247314453,0.740051269531,-0.350952148438
1534594344.40.936767578125,-0.39990234375,-0.074951171875,1.62506103516,0.663757324219,-0.0991821289062
1534594344.410.937744140625,-0.39990234375,-0.074951171875,1.67083740234,0.54931640625,-0.579833984375
1534594344.410.9384765625,-0.398681640625,-0.084716796875,1.41143798828,0.587463378906,-0.732421875
1534594344.410.93701171875,-0.39697265625,-0.081787109375,1.41143798828,0.411987304688,-0.663757324219
1534594344.420.937744140625,-0.40234375,-0.0810546875,1.44958496094,0.350952148438,-0.709533691406
1534594344.420.935791015625,-0.400390625,-0.08544921875,1.31988525391,0.3662109375,-0.48828125
1534594344.430.936767578125,-0.401611328125,-0.0830078125,1.49536132812,0.480651855469,-0.67138671875
1534594344.430.940185546875,-0.398193359375,-0.082275390625,1.72424316406,0.801086425781,-0.282287597656
1534594344.440.938232421875,-0.397705078125,-0.07763671875,1.69372558594,0.541687011719,-0.1220703125
1534594344.440.9326171875,-0.39990234375,-0.082763671875,1.67846679688,0.602722167969,-0.167846679688
1534594344.440.93798828125,-0.39794921875,-0.0810546875,1.63269042969,0.419616699219,-0.167846679688
