CSV format: Accelerometer x value, acclerometer y value, accelerometer z value, gyroscope x value, gyroscope y value, gyroscope z value
Sample frequency: 100Hz
1534599642.090.96923828125
1534599642.090.96923828125
1534599642.090.966796875
1534599642.090.9697265625
1534599642.10.964599609375
1534599642.10.960205078125
1534599642.10.95947265625
1534599642.10.964599609375
1534599642.10.965087890625
1534599642.10.963623046875
1534599642.10.966796875
1534599642.10.96630859375
1534599642.110.96484375
1534599642.110.962646484375
1534599642.120.965087890625
1534599642.120.968505859375
1534599642.120.968017578125
1534599642.120.968994140625
1534599642.120.968994140625
1534599642.120.97119140625
1534599642.120.969482421875
1534599642.120.96826171875
1534599642.120.96826171875
1534599642.120.969970703125
1534599642.130.969970703125
1534599642.130.96533203125
1534599642.130.96533203125
1534599642.130.966552734375
1534599642.130.966064453125
1534599642.130.966064453125
1534599642.130.965087890625
1534599642.130.965087890625
1534599642.130.96240234375
1534599642.130.962158203125
1534599642.140.96435546875
1534599642.140.96435546875
1534599642.140.965087890625
1534599642.140.96435546875
1534599642.140.9658203125
1534599642.140.964599609375
1534599642.140.964599609375
1534599642.140.96337890625
1534599642.140.96435546875
1534599642.150.966552734375
1534599642.150.966552734375
1534599642.150.96826171875
1534599642.150.96728515625
1534599642.150.9677734375
1534599642.150.9677734375
1534599642.150.962646484375
1534599642.150.9619140625
1534599642.150.9619140625
1534599642.150.96484375
1534599642.150.96240234375
1534599642.150.9697265625
1534599642.160.964599609375
1534599642.160.962646484375
1534599642.160.962646484375
1534599642.160.96484375
1534599642.160.9658203125
1534599642.160.964599609375
1534599642.160.963134765625
1534599642.160.963134765625
1534599642.170.965576171875
1534599642.170.966064453125
1534599642.170.966064453125
1534599642.170.96337890625
1534599642.170.96484375
1534599642.170.96484375
1534599642.170.964111328125
1534599642.170.9638671875
1534599642.170.96533203125
1534599642.170.96484375
1534599642.180.965087890625
1534599642.180.96533203125
1534599642.180.96533203125
1534599642.180.965087890625
1534599642.180.965087890625
1534599642.180.968017578125
1534599642.180.964111328125
1534599642.180.964111328125
1534599642.180.9658203125
1534599642.190.968505859375
1534599642.190.966796875
1534599642.190.966552734375
1534599642.190.968994140625
1534599642.190.968994140625
1534599642.190.967041015625
1534599642.190.967041015625
1534599642.190.968017578125
1534599642.190.968017578125
1534599642.190.96728515625
1534599642.190.96630859375
1534599642.190.96630859375
1534599642.190.96533203125
1534599642.20.96533203125
1534599642.20.9619140625
1534599642.20.961181640625
1534599642.20.961181640625
1534599642.20.96240234375
1534599642.20.96240234375
1534599642.20.96240234375
1534599642.20.963623046875
1534599642.20.9638671875
1534599642.20.96337890625
1534599642.210.966552734375
1534599642.210.9638671875
1534599642.210.965087890625
1534599642.210.96435546875
1534599642.210.96435546875
1534599642.210.960205078125
1534599642.210.9619140625
1534599642.210.96240234375
1534599642.210.963623046875
1534599642.220.965576171875
1534599642.220.96435546875
1534599642.220.963134765625
1534599642.220.966796875
1534599642.220.96728515625
1534599642.220.962890625
1534599642.220.962890625
1534599642.220.963623046875
1534599642.220.963623046875
1534599642.220.96630859375
1534599642.220.96630859375
1534599642.220.965576171875
1534599642.220.965087890625
1534599642.230.965087890625
1534599642.230.967041015625
1534599642.230.967041015625
1534599642.230.9677734375
1534599642.230.9677734375
1534599642.230.96435546875
1534599642.230.96435546875
1534599642.230.962890625
1534599642.230.96728515625
1534599642.230.96728515625
1534599642.230.96826171875
1534599642.230.96826171875
1534599642.230.966552734375
1534599642.230.966552734375
1534599642.230.967041015625
1534599642.230.967529296875
1534599642.230.967529296875
1534599642.230.96923828125
1534599642.240.96923828125
1534599642.240.970703125
1534599642.240.96875
1534599642.240.966552734375
1534599642.240.966552734375
1534599642.240.966796875
1534599642.240.966796875
1534599642.240.96533203125
1534599642.240.96533203125
1534599642.240.968017578125
1534599642.240.969482421875
1534599642.240.969482421875
1534599642.240.969482421875
1534599642.240.969482421875
1534599642.240.969970703125
1534599642.240.969970703125
1534599642.240.968017578125
1534599642.250.9677734375
1534599642.250.9677734375
1534599642.250.966552734375
1534599642.250.966552734375
1534599642.250.968017578125
1534599642.250.968994140625
1534599642.250.968994140625
1534599642.250.96826171875
1534599642.250.96826171875
1534599642.250.9677734375
1534599642.250.9677734375
1534599642.250.966796875
1534599642.250.967529296875
1534599642.250.967529296875
1534599642.250.96826171875
1534599642.250.96826171875
1534599642.250.96484375
1534599642.260.96484375
1534599642.260.964111328125
1534599642.260.964111328125
1534599642.260.9638671875
1534599642.260.963623046875
1534599642.260.963623046875
1534599642.260.966552734375
1534599642.260.966552734375
1534599642.260.9658203125
1534599642.260.96337890625
1534599642.260.96337890625
1534599642.260.963134765625
1534599642.260.963134765625
1534599642.260.96484375
1534599642.260.96484375
1534599642.260.963134765625
1534599642.260.9619140625
1534599642.260.9619140625
1534599642.270.965576171875
1534599642.270.965576171875
1534599642.270.965087890625
1534599642.270.965087890625
1534599642.270.959228515625
1534599642.270.962158203125
1534599642.270.962158203125
1534599642.270.96435546875
1534599642.270.961669921875
1534599642.270.961669921875
1534599642.270.9609375
1534599642.270.9609375
1534599642.270.95849609375
1534599642.270.95849609375
1534599642.270.96435546875
1534599642.270.96923828125
1534599642.270.96923828125
1534599642.280.96728515625
1534599642.280.96728515625
1534599642.280.96630859375
1534599642.280.96630859375
1534599642.280.965576171875
1534599642.280.962158203125
1534599642.280.962158203125
1534599642.280.96240234375
1534599642.280.96240234375
1534599642.280.966064453125
1534599642.280.966064453125
1534599642.280.965576171875
1534599642.280.961669921875
1534599642.280.961669921875
1534599642.290.96142578125
1534599642.290.968505859375
1534599642.290.9658203125
1534599642.30.96435546875
1534599642.30.96435546875
1534599642.30.966796875
1534599642.30.9697265625
1534599642.30.966796875
1534599642.30.96533203125
1534599642.30.9658203125
1534599642.30.9658203125
1534599642.30.96630859375
1534599642.310.966064453125
1534599642.310.966064453125
1534599642.310.96484375
1534599642.310.963623046875
1534599642.310.963623046875
1534599642.310.962158203125
1534599642.310.96630859375
1534599642.310.96630859375
1534599642.310.9677734375
1534599642.320.96728515625
1534599642.320.96240234375
1534599642.320.962890625
1534599642.320.962890625
1534599642.320.966796875
1534599642.320.97021484375
1534599642.320.97021484375
1534599642.320.96923828125
1534599642.320.968505859375
1534599642.320.968505859375
1534599642.320.96728515625
1534599642.330.967529296875
1534599642.330.967529296875
1534599642.330.968505859375
1534599642.330.9677734375
1534599642.330.96533203125
1534599642.330.963134765625
1534599642.330.962890625
1534599642.330.962890625
1534599642.330.961669921875
1534599642.340.962890625
1534599642.340.962890625
1534599642.340.963134765625
1534599642.340.965576171875
1534599642.340.96728515625
1534599642.340.96728515625
1534599642.340.96875
1534599642.340.965087890625
1534599642.350.962646484375
1534599642.350.966064453125
1534599642.350.966064453125
1534599642.350.966064453125
1534599642.350.965087890625
1534599642.350.965087890625
1534599642.350.96826171875
1534599642.350.96728515625
1534599642.350.96728515625
1534599642.350.966796875
1534599642.350.9677734375
1534599642.350.9677734375
1534599642.350.968994140625
1534599642.350.9677734375
1534599642.350.9677734375
1534599642.350.96630859375
1534599642.360.96630859375
1534599642.360.970703125
1534599642.360.970703125
1534599642.360.9677734375
1534599642.360.964111328125
1534599642.360.964111328125
1534599642.360.963623046875
1534599642.360.96435546875
1534599642.360.96435546875
1534599642.360.96728515625
1534599642.360.9658203125
1534599642.360.96240234375
1534599642.370.96484375
1534599642.370.9638671875
1534599642.370.96484375
1534599642.370.96484375
1534599642.370.96630859375
1534599642.370.96630859375
1534599642.370.963623046875
1534599642.370.963623046875
1534599642.370.962646484375
1534599642.370.962646484375
1534599642.370.959716796875
1534599642.380.960693359375
1534599642.380.962158203125
1534599642.380.9658203125
1534599642.380.9658203125
1534599642.380.96484375
1534599642.380.96484375
1534599642.380.966064453125
1534599642.380.966064453125
1534599642.380.967041015625
1534599642.380.967041015625
1534599642.380.962646484375
1534599642.380.962646484375
1534599642.380.96240234375
1534599642.380.96240234375
1534599642.380.96533203125
1534599642.390.96533203125
1534599642.390.967529296875
1534599642.390.967529296875
1534599642.390.966552734375
1534599642.390.966552734375
1534599642.390.96484375
1534599642.390.96484375
1534599642.390.967041015625
1534599642.390.967041015625
1534599642.390.963623046875
1534599642.390.963623046875
1534599642.390.963623046875
1534599642.390.96044921875
1534599642.390.96044921875
1534599642.390.964599609375
1534599642.390.964599609375
1534599642.390.967041015625
1534599642.390.967041015625
1534599642.390.96533203125
1534599642.390.96533203125
1534599642.390.96484375
1534599642.40.96484375
1534599642.40.96630859375
1534599642.40.96630859375
1534599642.40.967041015625
1534599642.40.967041015625
1534599642.40.96630859375
1534599642.40.96630859375
1534599642.40.965576171875
1534599642.40.965576171875
1534599642.40.966796875
1534599642.40.966796875
1534599642.40.963623046875
1534599642.40.963623046875
1534599642.40.963134765625
1534599642.40.963134765625
1534599642.40.96435546875
1534599642.40.96435546875
1534599642.40.967041015625
1534599642.40.967041015625
1534599642.40.967041015625
1534599642.40.968994140625
1534599642.410.968994140625
1534599642.410.966552734375
1534599642.410.966552734375
1534599642.410.966552734375
1534599642.410.966552734375
1534599642.410.96728515625
1534599642.410.96728515625
1534599642.410.967041015625
1534599642.410.967041015625
1534599642.410.966796875
1534599642.410.966796875
1534599642.410.966552734375
1534599642.410.966552734375
1534599642.410.96484375
1534599642.410.96484375
1534599642.410.9658203125
1534599642.410.9658203125
1534599642.410.96630859375
1534599642.410.96630859375
1534599642.410.964599609375
1534599642.410.964599609375
1534599642.420.966796875
1534599642.420.966796875
1534599642.420.96875
1534599642.420.96875
1534599642.420.966552734375
1534599642.420.966552734375
1534599642.420.965576171875
1534599642.420.965576171875
1534599642.420.965576171875
1534599642.420.96630859375
1534599642.420.96630859375
1534599642.420.96630859375
1534599642.420.96630859375
1534599642.420.96630859375
1534599642.420.96630859375
1534599642.420.967041015625
1534599642.420.967041015625
1534599642.420.96484375
1534599642.420.96484375
1534599642.420.964111328125
1534599642.430.964111328125
1534599642.430.96533203125
1534599642.430.96533203125
1534599642.430.966064453125
1534599642.430.966064453125
1534599642.430.96533203125
1534599642.430.96533203125
1534599642.430.963134765625
1534599642.430.963134765625
1534599642.430.96533203125
1534599642.430.96533203125
1534599642.430.9677734375
1534599642.430.9677734375
1534599642.430.965576171875
1534599642.430.965576171875
1534599642.430.965576171875
1534599642.430.964111328125
1534599642.430.964111328125
1534599642.430.96630859375
1534599642.430.96630859375
1534599642.430.966552734375
1534599642.440.966552734375
1534599642.440.966552734375
1534599642.440.966552734375
1534599642.440.967041015625
1534599642.440.967041015625
1534599642.440.96533203125
1534599642.440.96533203125
1534599642.440.966064453125
1534599642.440.966064453125
1534599642.440.9658203125
1534599642.440.9658203125
1534599642.440.96337890625
1534599642.440.96337890625
1534599642.440.96484375
1534599642.440.96484375
1534599642.440.96533203125
1534599642.440.96533203125
1534599642.440.96435546875
1534599642.440.96435546875
1534599642.440.96728515625
1534599642.440.96728515625
1534599642.450.9658203125
1534599642.450.9658203125
1534599642.450.9658203125
1534599642.450.9658203125
1534599642.450.96728515625
1534599642.450.96728515625
1534599642.450.964111328125
1534599642.450.964111328125
1534599642.450.966796875
1534599642.450.966796875
1534599642.450.968017578125
1534599642.450.968017578125
1534599642.450.96728515625
1534599642.460.965576171875
1534599642.460.9697265625
1534599642.460.9697265625
1534599642.460.96728515625
1534599642.460.966552734375
1534599642.460.966552734375
1534599642.470.969970703125
1534599642.470.966796875
1534599642.470.966796875
1534599642.470.963134765625
1534599642.470.963134765625
1534599642.470.962646484375
1534599642.470.962646484375
1534599642.470.9619140625
1534599642.470.963623046875
1534599642.470.967041015625
1534599642.470.967041015625
1534599642.470.966552734375
1534599642.470.966552734375
1534599642.470.96484375
1534599642.480.9619140625
1534599642.480.966552734375
1534599642.480.966552734375
1534599642.480.96240234375
1534599642.480.96240234375
1534599642.480.9599609375
1534599642.480.9599609375
1534599642.480.9580078125
1534599642.480.958984375
1534599642.480.958984375
1534599642.480.958984375
1534599642.480.958984375
1534599642.480.9580078125
1534599642.490.95947265625
1534599642.490.95947265625
1534599642.490.958984375
1534599642.490.958984375
1534599642.490.959228515625
1534599642.490.960693359375
1534599642.490.960693359375
1534599642.490.961181640625
1534599642.490.961181640625
1534599642.490.963134765625
1534599642.490.962158203125
1534599642.490.962158203125
1534599642.490.962646484375
1534599642.490.962646484375
1534599642.490.96533203125
1534599642.490.96533203125
1534599642.50.966552734375
1534599642.50.967041015625
1534599642.50.967041015625
1534599642.50.96630859375
1534599642.50.966064453125
1534599642.50.966064453125
1534599642.50.96826171875
1534599642.50.96826171875
1534599642.50.96728515625
1534599642.50.96728515625
1534599642.50.970458984375
1534599642.50.96826171875
1534599642.50.96826171875
1534599642.510.965576171875
1534599642.510.965576171875
1534599642.510.9677734375
1534599642.510.97119140625
1534599642.510.9716796875
1534599642.510.9716796875
1534599642.510.969970703125
1534599642.510.967041015625
1534599642.510.967041015625
1534599642.510.966796875
1534599642.510.96337890625
1534599642.510.96240234375
1534599642.510.96240234375
1534599642.510.96240234375
1534599642.520.9658203125
1534599642.520.9658203125
1534599642.520.96826171875
1534599642.520.96826171875
1534599642.520.9658203125
1534599642.520.9658203125
1534599642.520.96533203125
1534599642.520.96533203125
1534599642.520.967041015625
1534599642.520.967041015625
1534599642.520.966796875
1534599642.520.966796875
1534599642.520.962646484375
1534599642.520.962646484375
1534599642.520.96337890625
1534599642.520.96337890625
1534599642.520.963623046875
1534599642.520.963623046875
1534599642.520.960693359375
1534599642.520.960693359375
1534599642.520.9619140625
1534599642.530.9619140625
1534599642.530.961669921875
1534599642.530.962646484375
1534599642.530.95654296875
1534599642.530.95947265625
1534599642.530.95947265625
1534599642.530.964599609375
1534599642.530.964599609375
1534599642.530.96337890625
1534599642.530.96337890625
1534599642.530.962158203125
1534599642.530.962158203125
1534599642.530.962890625
1534599642.530.962890625
1534599642.530.9658203125
1534599642.540.9658203125
1534599642.540.96337890625
1534599642.540.96337890625
1534599642.540.962646484375
1534599642.540.962646484375
1534599642.540.965087890625
1534599642.540.965087890625
1534599642.540.96240234375
1534599642.540.96240234375
1534599642.540.962158203125
1534599642.540.962158203125
1534599642.540.962158203125
1534599642.540.96533203125
1534599642.540.96533203125
1534599642.540.96630859375
1534599642.540.96630859375
1534599642.540.96728515625
1534599642.540.96728515625
1534599642.540.968505859375
1534599642.540.968505859375
1534599642.540.969970703125
1534599642.550.969970703125
1534599642.550.96875
1534599642.550.96435546875
1534599642.550.96435546875
1534599642.550.9638671875
1534599642.550.9638671875
1534599642.550.9658203125
1534599642.550.9658203125
1534599642.550.966064453125
1534599642.550.966064453125
1534599642.550.9638671875
1534599642.550.9638671875
1534599642.550.9638671875
1534599642.550.96533203125
1534599642.550.96533203125
1534599642.550.968505859375
1534599642.550.968505859375
1534599642.550.9697265625
1534599642.550.9697265625
1534599642.550.97119140625
1534599642.560.97119140625
1534599642.560.9716796875
1534599642.560.9716796875
1534599642.560.971435546875
1534599642.560.971435546875
1534599642.560.968994140625
1534599642.560.968994140625
1534599642.560.967529296875
1534599642.560.967529296875
1534599642.560.969482421875
1534599642.560.969482421875
1534599642.560.97216796875
1534599642.560.97216796875
1534599642.560.97265625
1534599642.560.97265625
1534599642.560.9736328125
1534599642.560.9736328125
1534599642.560.9736328125
1534599642.560.9736328125
1534599642.560.969970703125
1534599642.570.969970703125
1534599642.570.9619140625
1534599642.570.9619140625
1534599642.570.95947265625
1534599642.570.95947265625
1534599642.570.95947265625
1534599642.570.963623046875
1534599642.570.963623046875
1534599642.570.965087890625
1534599642.570.965087890625
1534599642.570.96533203125
1534599642.570.96533203125
1534599642.570.966552734375
1534599642.570.967041015625
1534599642.570.967041015625
1534599642.570.967041015625
1534599642.570.968017578125
1534599642.570.968017578125
1534599642.570.96728515625
1534599642.570.96728515625
1534599642.570.96240234375
1534599642.580.96240234375
1534599642.580.9619140625
1534599642.580.9619140625
1534599642.580.964599609375
1534599642.580.964599609375
1534599642.580.965087890625
1534599642.580.965087890625
1534599642.580.962890625
1534599642.580.962890625
1534599642.580.96337890625
1534599642.580.96337890625
1534599642.580.96435546875
1534599642.580.96435546875
1534599642.580.96337890625
1534599642.580.96337890625
1534599642.580.96240234375
1534599642.580.96240234375
1534599642.580.960693359375
1534599642.580.960693359375
1534599642.580.959228515625
1534599642.580.959228515625
1534599642.590.961181640625
1534599642.590.961181640625
1534599642.590.9658203125
1534599642.590.9658203125
1534599642.590.9658203125
1534599642.590.966064453125
1534599642.590.966064453125
1534599642.590.96630859375
1534599642.590.96630859375
1534599642.590.96826171875
1534599642.590.96826171875
1534599642.590.9677734375
1534599642.590.9677734375
1534599642.590.96484375
1534599642.590.96484375
1534599642.590.963623046875
1534599642.590.963623046875
1534599642.590.964111328125
1534599642.590.964111328125
1534599642.590.9658203125
1534599642.60.9658203125
1534599642.60.964599609375
1534599642.60.964599609375
1534599642.60.96337890625
1534599642.60.96337890625
1534599642.60.9658203125
1534599642.60.9658203125
1534599642.60.9658203125
1534599642.60.9658203125
1534599642.60.96533203125
1534599642.60.96533203125
1534599642.60.96533203125
1534599642.60.96533203125
1534599642.60.96533203125
1534599642.60.964111328125
1534599642.60.964111328125
1534599642.60.963134765625
1534599642.60.963134765625
1534599642.60.96484375
1534599642.60.96484375
1534599642.60.963134765625
1534599642.610.963134765625
1534599642.610.96240234375
1534599642.610.96240234375
1534599642.610.96484375
1534599642.620.968505859375
1534599642.620.9658203125
1534599642.620.9658203125
1534599642.620.96728515625
1534599642.620.96728515625
1534599642.620.966796875
1534599642.620.965087890625
1534599642.620.965087890625
1534599642.620.965576171875
1534599642.620.9638671875
1534599642.620.9638671875
1534599642.620.96533203125
1534599642.630.96533203125
1534599642.630.96630859375
1534599642.630.965087890625
1534599642.630.965087890625
1534599642.630.9677734375
1534599642.630.967529296875
1534599642.630.968994140625
1534599642.630.965576171875
1534599642.640.965576171875
1534599642.640.964111328125
1534599642.640.96435546875
1534599642.640.96435546875
1534599642.640.966796875
1534599642.640.9677734375
1534599642.640.9677734375
1534599642.640.966064453125
1534599642.640.96630859375
1534599642.640.96630859375
1534599642.640.97021484375
1534599642.640.9697265625
1534599642.640.9697265625
1534599642.640.965576171875
1534599642.640.965576171875
1534599642.640.962646484375
1534599642.650.961669921875
1534599642.650.96533203125
1534599642.650.96533203125
1534599642.650.96533203125
1534599642.650.965087890625
1534599642.650.965087890625
1534599642.650.963623046875
1534599642.650.962646484375
1534599642.650.962646484375
1534599642.650.96142578125
1534599642.660.9619140625
1534599642.660.9619140625
1534599642.660.96484375
1534599642.660.9638671875
1534599642.660.9638671875
1534599642.660.961669921875
1534599642.660.961669921875
1534599642.660.963623046875
1534599642.660.958740234375
1534599642.660.958740234375
1534599642.660.959716796875
1534599642.660.959716796875
1534599642.660.96337890625
1534599642.660.96337890625
1534599642.660.962158203125
1534599642.670.962158203125
1534599642.670.962158203125
1534599642.670.967529296875
1534599642.670.967529296875
1534599642.670.96484375
1534599642.670.96484375
1534599642.670.963134765625
1534599642.670.963134765625
1534599642.670.9638671875
1534599642.670.9638671875
1534599642.670.9619140625
1534599642.670.9619140625
1534599642.670.96435546875
1534599642.670.966552734375
1534599642.670.966552734375
1534599642.670.966064453125
1534599642.670.966064453125
1534599642.670.9658203125
1534599642.670.9658203125
1534599642.670.967529296875
1534599642.680.967529296875
1534599642.680.967529296875
1534599642.680.967041015625
1534599642.680.967041015625
1534599642.680.967041015625
1534599642.680.969482421875
1534599642.680.970458984375
1534599642.680.969482421875
1534599642.680.969482421875
1534599642.680.966064453125
1534599642.680.966064453125
1534599642.680.967529296875
1534599642.680.967529296875
1534599642.680.970458984375
1534599642.680.970458984375
1534599642.680.9677734375
1534599642.680.9677734375
1534599642.690.96533203125
1534599642.690.96533203125
1534599642.690.963134765625
1534599642.690.963134765625
1534599642.690.961181640625
1534599642.690.961181640625
1534599642.690.96337890625
1534599642.690.96337890625
1534599642.690.96240234375
1534599642.690.96240234375
1534599642.690.963134765625
1534599642.690.963134765625
1534599642.690.966064453125
1534599642.690.966064453125
1534599642.690.964111328125
1534599642.690.964111328125
1534599642.690.963134765625
1534599642.690.963134765625
1534599642.690.96337890625
1534599642.690.96337890625
1534599642.690.96240234375
1534599642.70.96240234375
1534599642.70.96240234375
1534599642.70.9638671875
1534599642.70.9638671875
1534599642.70.9619140625
1534599642.70.9619140625
1534599642.70.960693359375
1534599642.70.960693359375
1534599642.70.962646484375
1534599642.70.962646484375
1534599642.70.96240234375
1534599642.70.96240234375
1534599642.70.963134765625
1534599642.70.963134765625
1534599642.70.9599609375
1534599642.70.9599609375
1534599642.70.963623046875
1534599642.70.963623046875
1534599642.70.96630859375
1534599642.70.96630859375
1534599642.70.963134765625
1534599642.710.963134765625
1534599642.710.964111328125
1534599642.710.964111328125
1534599642.710.96337890625
1534599642.710.96337890625
1534599642.710.964111328125
1534599642.710.964111328125
1534599642.710.964111328125
1534599642.710.964599609375
1534599642.710.964599609375
1534599642.710.9638671875
1534599642.710.9638671875
1534599642.710.966796875
1534599642.710.966796875
1534599642.710.968994140625
1534599642.710.968994140625
1534599642.710.96875
1534599642.710.96875
1534599642.710.96484375
1534599642.710.96484375
1534599642.710.96435546875
1534599642.720.96435546875
1534599642.720.96728515625
1534599642.720.96728515625
1534599642.720.966552734375
1534599642.720.966552734375
1534599642.720.966064453125
1534599642.720.966064453125
1534599642.720.968994140625
1534599642.720.968994140625
1534599642.720.97119140625
1534599642.720.97119140625
1534599642.720.967529296875
1534599642.720.967529296875
1534599642.720.967529296875
1534599642.720.9658203125
1534599642.720.9658203125
1534599642.720.964599609375
1534599642.720.964599609375
1534599642.720.963623046875
1534599642.720.96630859375
1534599642.730.96630859375
1534599642.730.96728515625
1534599642.730.96728515625
1534599642.730.96337890625
1534599642.730.96337890625
1534599642.730.962890625
1534599642.730.962890625
1534599642.730.966064453125
1534599642.730.966064453125
1534599642.730.965087890625
1534599642.730.965087890625
1534599642.730.966064453125
1534599642.730.966064453125
1534599642.730.966064453125
1534599642.730.96533203125
1534599642.730.96533203125
1534599642.730.9658203125
1534599642.730.9658203125
1534599642.730.966796875
1534599642.730.966796875
1534599642.730.967041015625
1534599642.740.967041015625
1534599642.740.968017578125
1534599642.740.968017578125
1534599642.740.964599609375
1534599642.740.964599609375
1534599642.740.963623046875
1534599642.740.963623046875
1534599642.740.96435546875
1534599642.740.96435546875
1534599642.740.96630859375
1534599642.740.96630859375
1534599642.740.966796875
1534599642.740.966796875
1534599642.740.9658203125
1534599642.740.9658203125
1534599642.740.966796875
1534599642.740.966796875
1534599642.740.969482421875
1534599642.740.969482421875
1534599642.740.970947265625
1534599642.750.970947265625
1534599642.750.968994140625
1534599642.750.968994140625
1534599642.750.968994140625
1534599642.750.964599609375
1534599642.750.964599609375
1534599642.750.96533203125
1534599642.750.96533203125
1534599642.750.966796875
1534599642.750.966796875
1534599642.750.96630859375
1534599642.750.96630859375
1534599642.750.96630859375
1534599642.750.96630859375
1534599642.750.963623046875
1534599642.750.963623046875
1534599642.750.965576171875
1534599642.750.965576171875
1534599642.750.9638671875
1534599642.750.9638671875
1534599642.750.962158203125
1534599642.760.962158203125
1534599642.760.965087890625
1534599642.760.965087890625
1534599642.760.966552734375
1534599642.760.966552734375
1534599642.760.96826171875
1534599642.760.96826171875
1534599642.760.966796875
1534599642.760.966796875
1534599642.760.966796875
1534599642.760.966796875
1534599642.760.966552734375
1534599642.760.966552734375
1534599642.760.964599609375
1534599642.760.964599609375
1534599642.760.964599609375
1534599642.760.965087890625
1534599642.760.965087890625
1534599642.760.9658203125
1534599642.770.9658203125
1534599642.770.968505859375
1534599642.770.9677734375
1534599642.770.966552734375
1534599642.780.96875
1534599642.780.96875
1534599642.780.968017578125
1534599642.780.968017578125
1534599642.780.965576171875
1534599642.780.9658203125
1534599642.780.9658203125
1534599642.780.96435546875
1534599642.780.96435546875
1534599642.780.966064453125
1534599642.780.9658203125
1534599642.790.968017578125
1534599642.790.965087890625
1534599642.790.965087890625
1534599642.790.964111328125
1534599642.790.962646484375
1534599642.790.962646484375
1534599642.790.96337890625
1534599642.790.96337890625
1534599642.790.964599609375
1534599642.790.963134765625
1534599642.790.963134765625
1534599642.790.9619140625
1534599642.790.9619140625
1534599642.790.962890625
1534599642.790.962890625
1534599642.790.96337890625
1534599642.790.96337890625
1534599642.790.96240234375
1534599642.80.964111328125
1534599642.80.964111328125
1534599642.80.965087890625
1534599642.80.965087890625
1534599642.80.96728515625
1534599642.80.96826171875
1534599642.810.96826171875
1534599642.810.9619140625
1534599642.810.960205078125
1534599642.810.960205078125
1534599642.810.963134765625
1534599642.810.963134765625
1534599642.810.962890625
1534599642.810.962890625
1534599642.810.964599609375
1534599642.810.9658203125
1534599642.810.9658203125
1534599642.810.965087890625
1534599642.810.965087890625
1534599642.810.9638671875
1534599642.810.9638671875
1534599642.810.963623046875
1534599642.810.9638671875
1534599642.820.9638671875
1534599642.820.964111328125
1534599642.820.9638671875
1534599642.820.9619140625
1534599642.820.964111328125
1534599642.820.96630859375
1534599642.820.96630859375
1534599642.820.965576171875
1534599642.820.965576171875
1534599642.820.967529296875
1534599642.820.967529296875
1534599642.820.966552734375
1534599642.820.964111328125
1534599642.820.964111328125
1534599642.820.962890625
1534599642.820.962890625
1534599642.830.96337890625
1534599642.830.96337890625
1534599642.830.9638671875
1534599642.830.9638671875
1534599642.830.961181640625
1534599642.830.96484375
1534599642.830.96484375
1534599642.830.968505859375
1534599642.830.968505859375
1534599642.830.968505859375
1534599642.830.968017578125
1534599642.830.968017578125
1534599642.830.96630859375
1534599642.830.96630859375
1534599642.830.96484375
1534599642.830.96484375
1534599642.830.96240234375
1534599642.840.96240234375
1534599642.840.965576171875
1534599642.840.96484375
1534599642.840.962646484375
1534599642.840.962646484375
1534599642.840.9619140625
1534599642.840.9619140625
1534599642.840.962890625
1534599642.840.962890625
1534599642.840.961669921875
1534599642.840.961669921875
1534599642.840.96435546875
1534599642.840.96435546875
1534599642.840.967041015625
1534599642.840.967041015625
1534599642.840.96630859375
1534599642.840.96630859375
1534599642.840.968017578125
1534599642.840.968017578125
1534599642.850.96826171875
1534599642.850.96826171875
1534599642.850.966796875
1534599642.850.966796875
1534599642.850.96435546875
1534599642.850.96435546875
1534599642.850.962890625
1534599642.850.962890625
1534599642.850.965576171875
1534599642.850.965576171875
1534599642.850.9658203125
1534599642.850.9658203125
1534599642.850.9658203125
1534599642.850.96533203125
1534599642.850.96533203125
1534599642.850.96435546875
1534599642.850.96435546875
1534599642.850.964111328125
1534599642.850.964111328125
1534599642.850.96337890625
1534599642.850.96337890625
1534599642.860.96533203125
1534599642.860.96533203125
1534599642.860.967529296875
1534599642.860.967529296875
1534599642.860.963623046875
1534599642.860.963623046875
1534599642.860.96337890625
1534599642.860.96337890625
1534599642.860.96435546875
1534599642.860.96435546875
1534599642.860.964599609375
1534599642.860.964599609375
1534599642.860.963134765625
1534599642.860.963134765625
1534599642.860.962890625
1534599642.860.962890625
1534599642.860.962890625
1534599642.860.96484375
1534599642.860.96484375
1534599642.860.96630859375
1534599642.860.96630859375
1534599642.870.967529296875
1534599642.870.967529296875
1534599642.870.965576171875
1534599642.870.965576171875
1534599642.870.9638671875
1534599642.870.9638671875
1534599642.870.9638671875
1534599642.870.9638671875
1534599642.870.962158203125
1534599642.870.962158203125
1534599642.870.962890625
1534599642.870.962890625
1534599642.870.96435546875
1534599642.870.96435546875
1534599642.870.962890625
1534599642.870.962890625
1534599642.870.964111328125
1534599642.870.964111328125
1534599642.870.963623046875
1534599642.870.963623046875
1534599642.880.961669921875
1534599642.880.961669921875
1534599642.880.9619140625
1534599642.880.9619140625
1534599642.880.96337890625
1534599642.880.96337890625
1534599642.880.96533203125
1534599642.880.96533203125
1534599642.880.96484375
1534599642.880.96484375
1534599642.880.963623046875
1534599642.880.963623046875
1534599642.880.960693359375
1534599642.880.960693359375
1534599642.880.961181640625
1534599642.880.961181640625
1534599642.880.965087890625
1534599642.880.965087890625
1534599642.880.9638671875
1534599642.880.9638671875
1534599642.880.9638671875
1534599642.890.96240234375
1534599642.890.96240234375
1534599642.890.96484375
1534599642.890.96484375
1534599642.890.966064453125
1534599642.890.966064453125
1534599642.890.96728515625
1534599642.890.96728515625
1534599642.890.970703125
1534599642.890.970703125
1534599642.890.96875
1534599642.890.96875
1534599642.890.966064453125
1534599642.890.966064453125
1534599642.890.9677734375
1534599642.890.9677734375
1534599642.890.96728515625
1534599642.890.96728515625
1534599642.890.966552734375
1534599642.890.966552734375
1534599642.890.96533203125
1534599642.90.96533203125
1534599642.90.96484375
1534599642.90.96484375
1534599642.90.96484375
1534599642.90.9677734375
1534599642.90.9677734375
1534599642.90.96875
1534599642.90.96875
1534599642.90.968017578125
1534599642.90.968017578125
1534599642.90.966552734375
1534599642.90.965087890625
1534599642.90.965087890625
1534599642.90.9658203125
1534599642.90.9658203125
1534599642.90.9658203125
1534599642.90.9658203125
1534599642.90.96533203125
1534599642.90.96533203125
1534599642.90.965576171875
1534599642.910.965576171875
1534599642.910.96484375
1534599642.910.96484375
1534599642.910.963134765625
1534599642.910.963134765625
1534599642.910.9638671875
1534599642.910.9638671875
1534599642.910.965087890625
1534599642.910.965087890625
1534599642.910.967041015625
1534599642.910.967041015625
1534599642.910.965576171875
1534599642.910.965576171875
1534599642.910.965576171875
1534599642.910.960693359375
1534599642.910.960693359375
1534599642.920.961669921875
1534599642.920.966552734375
1534599642.920.966064453125
1534599642.920.9638671875
1534599642.920.9638671875
1534599642.920.963134765625
1534599642.920.963134765625
1534599642.930.9658203125
1534599642.930.96728515625
1534599642.930.96728515625
1534599642.930.966552734375
1534599642.930.966552734375
1534599642.930.965576171875
1534599642.930.9638671875
1534599642.930.96630859375
1534599642.930.96630859375
1534599642.930.9677734375
1534599642.930.9677734375
1534599642.930.966796875
1534599642.930.96533203125
1534599642.930.96533203125
1534599642.940.9677734375
1534599642.940.96240234375
1534599642.940.96630859375
1534599642.940.96630859375
1534599642.940.966552734375
1534599642.940.9697265625
1534599642.950.9697265625
1534599642.950.968017578125
1534599642.950.968017578125
1534599642.950.962158203125
1534599642.950.961669921875
1534599642.950.96484375
1534599642.950.96484375
1534599642.950.966064453125
1534599642.950.9658203125
1534599642.950.9658203125
1534599642.950.96826171875
1534599642.950.96630859375
1534599642.950.9638671875
1534599642.950.9638671875
1534599642.950.962890625
1534599642.960.965087890625
1534599642.960.967529296875
1534599642.960.96728515625
1534599642.960.96337890625
1534599642.960.96337890625
1534599642.960.963134765625
1534599642.960.964599609375
1534599642.960.964599609375
1534599642.960.963623046875
1534599642.960.963623046875
1534599642.960.96240234375
1534599642.960.96484375
1534599642.970.96484375
1534599642.970.963623046875
1534599642.970.9619140625
1534599642.970.96337890625
1534599642.970.96337890625
1534599642.970.962646484375
1534599642.970.962646484375
1534599642.970.961669921875
1534599642.970.961669921875
1534599642.970.96240234375
1534599642.970.96240234375
1534599642.970.9638671875
1534599642.970.9638671875
1534599642.970.965576171875
1534599642.970.965576171875
1534599642.970.964599609375
1534599642.970.965576171875
1534599642.980.965576171875
1534599642.980.967041015625
1534599642.980.967041015625
1534599642.980.963623046875
1534599642.980.963623046875
1534599642.980.96337890625
1534599642.980.96337890625
1534599642.980.96435546875
1534599642.980.96435546875
1534599642.980.964111328125
1534599642.980.964111328125
1534599642.980.963623046875
1534599642.980.963623046875
1534599642.980.963134765625
1534599642.980.963134765625
1534599642.980.962158203125
1534599642.980.962158203125
1534599642.980.962890625
1534599642.980.962890625
1534599642.980.962890625
1534599642.980.962890625
1534599642.990.96240234375
1534599642.990.96240234375
1534599642.990.9638671875
1534599642.990.9638671875
1534599642.990.966796875
1534599642.990.966796875
1534599642.990.96826171875
1534599642.990.96826171875
1534599642.990.966064453125
1534599642.990.966064453125
1534599642.990.96435546875
1534599642.990.96435546875
1534599642.990.96435546875
1534599642.990.965576171875
1534599642.990.965576171875
1534599642.990.967529296875
1534599642.990.967529296875
1534599642.990.96435546875
1534599642.990.96435546875
1534599642.990.9638671875
1534599643.00.9638671875
1534599643.00.967041015625
1534599643.00.967041015625
1534599643.00.96923828125
1534599643.00.96923828125
1534599643.00.96728515625
1534599643.00.96728515625
1534599643.00.9658203125
1534599643.00.9658203125
1534599643.00.96630859375
1534599643.00.96630859375
1534599643.00.96630859375
1534599643.00.96630859375
1534599643.00.9658203125
1534599643.00.9658203125
1534599643.00.9619140625
1534599643.00.9619140625
1534599643.00.964111328125
1534599643.00.964111328125
1534599643.00.96630859375
1534599643.010.96630859375
1534599643.010.96435546875
1534599643.010.96435546875
1534599643.010.964111328125
1534599643.010.964111328125
1534599643.010.963134765625
1534599643.010.963134765625
1534599643.010.9638671875
1534599643.010.9638671875
1534599643.010.965576171875
1534599643.010.965576171875
1534599643.010.9638671875
1534599643.010.9638671875
1534599643.010.96435546875
1534599643.010.96435546875
1534599643.010.96630859375
1534599643.010.96630859375
1534599643.010.968017578125
1534599643.010.968017578125
1534599643.010.9697265625
1534599643.010.9697265625
1534599643.020.970947265625
1534599643.020.970947265625
1534599643.020.9697265625
1534599643.020.9697265625
1534599643.020.96826171875
1534599643.020.96826171875
1534599643.020.968017578125
1534599643.020.968017578125
1534599643.020.96484375
1534599643.020.96484375
1534599643.020.963623046875
1534599643.020.963623046875
1534599643.020.963623046875
1534599643.020.9677734375
1534599643.020.970458984375
1534599643.020.970703125
1534599643.030.972900390625
1534599643.030.966552734375
1534599643.030.966552734375
1534599643.030.966552734375
1534599643.030.96630859375
1534599643.030.96630859375
1534599643.030.966064453125
1534599643.030.966064453125
1534599643.030.9677734375
1534599643.030.9677734375
1534599643.030.96826171875
1534599643.030.96826171875
1534599643.030.967041015625
1534599643.030.967041015625
1534599643.030.96630859375
1534599643.030.96630859375
1534599643.030.965087890625
1534599643.030.965087890625
1534599643.030.962646484375
1534599643.030.962646484375
1534599643.040.962158203125
1534599643.040.962158203125
1534599643.040.96435546875
1534599643.040.96435546875
1534599643.040.9638671875
1534599643.040.9638671875
1534599643.040.962890625
1534599643.040.962890625
1534599643.040.96533203125
1534599643.040.96533203125
1534599643.040.969482421875
1534599643.040.969482421875
1534599643.040.966796875
1534599643.040.966796875
1534599643.040.965087890625
1534599643.040.965087890625
1534599643.040.965087890625
1534599643.040.966064453125
1534599643.040.966064453125
1534599643.040.9638671875
1534599643.040.9638671875
1534599643.050.965576171875
1534599643.050.965576171875
1534599643.050.96533203125
1534599643.050.96533203125
1534599643.050.964599609375
1534599643.050.964599609375
1534599643.050.967041015625
1534599643.050.967041015625
1534599643.050.96728515625
1534599643.050.96728515625
1534599643.050.9638671875
1534599643.050.9638671875
1534599643.050.963623046875
1534599643.050.963623046875
1534599643.050.96630859375
1534599643.050.96630859375
1534599643.050.96630859375
1534599643.050.96630859375
1534599643.050.963134765625
1534599643.050.963134765625
1534599643.050.963623046875
1534599643.060.963623046875
1534599643.060.965087890625
1534599643.060.965087890625
1534599643.060.965087890625
1534599643.060.965087890625
1534599643.060.965087890625
1534599643.060.966796875
1534599643.060.966796875
1534599643.060.96484375
1534599643.060.96484375
1534599643.060.960693359375
1534599643.060.960693359375
1534599643.060.962890625
1534599643.060.962890625
1534599643.060.96728515625
1534599643.060.96728515625
1534599643.060.9658203125
1534599643.060.9658203125
1534599643.060.963134765625
1534599643.060.963134765625
1534599643.060.963134765625
1534599643.070.963134765625
1534599643.070.9658203125
1534599643.070.9658203125
1534599643.070.968994140625
1534599643.070.968994140625
1534599643.070.96923828125
1534599643.070.96923828125
1534599643.070.96630859375
1534599643.070.96630859375
1534599643.070.965087890625
1534599643.080.965087890625
1534599643.080.96142578125
1534599643.080.9609375
1534599643.080.966064453125
1534599643.080.96533203125
1534599643.080.96533203125
1534599643.080.962158203125
1534599643.080.962158203125
1534599643.090.95947265625
1534599643.090.962646484375
1534599643.090.962646484375
1534599643.090.964599609375
1534599643.090.962158203125
1534599643.090.962158203125
1534599643.090.96240234375
1534599643.090.96533203125
1534599643.090.96533203125
1534599643.090.9658203125
1534599643.090.96630859375
1534599643.090.96630859375
1534599643.090.964599609375
1534599643.10.964599609375
1534599643.10.969482421875
1534599643.10.96728515625
1534599643.10.96728515625
1534599643.10.967529296875
1534599643.10.967529296875
1534599643.10.966064453125
1534599643.10.965576171875
1534599643.10.965576171875
1534599643.10.967041015625
1534599643.10.967041015625
1534599643.10.968017578125
1534599643.10.96923828125
1534599643.110.96923828125
1534599643.110.96630859375
1534599643.110.96484375
1534599643.110.96484375
1534599643.110.9658203125
1534599643.110.9658203125
1534599643.110.9658203125
1534599643.110.968017578125
1534599643.110.968017578125
1534599643.110.96875
1534599643.110.96875
1534599643.110.968994140625
1534599643.110.961181640625
1534599643.120.962646484375
1534599643.120.962646484375
1534599643.120.962646484375
1534599643.120.966064453125
1534599643.120.96728515625
1534599643.120.96435546875
1534599643.120.964599609375
1534599643.120.965576171875
1534599643.120.964599609375
1534599643.120.964599609375
1534599643.120.966064453125
1534599643.130.9677734375
1534599643.130.9677734375
1534599643.130.96630859375
1534599643.130.96630859375
1534599643.130.9658203125
1534599643.130.9658203125
1534599643.130.96728515625
1534599643.130.96728515625
1534599643.130.962646484375
1534599643.130.962646484375
1534599643.130.962646484375
1534599643.130.962646484375
1534599643.130.964111328125
1534599643.130.964111328125
1534599643.130.963134765625
1534599643.130.963134765625
1534599643.130.96435546875
1534599643.140.96435546875
1534599643.140.965087890625
1534599643.140.965087890625
1534599643.140.9658203125
1534599643.140.9658203125
1534599643.140.966064453125
1534599643.140.966064453125
1534599643.140.962646484375
1534599643.140.962646484375
1534599643.140.962646484375
1534599643.140.9638671875
1534599643.140.9638671875
1534599643.140.966064453125
1534599643.140.966064453125
1534599643.140.964111328125
1534599643.140.964111328125
1534599643.140.96533203125
1534599643.140.96533203125
1534599643.140.96533203125
1534599643.140.964599609375
1534599643.150.965576171875
1534599643.150.965576171875
1534599643.150.96728515625
1534599643.150.96728515625
1534599643.150.96728515625
1534599643.150.967041015625
1534599643.150.967041015625
1534599643.150.96826171875
1534599643.150.96826171875
1534599643.150.966552734375
1534599643.150.966552734375
1534599643.150.96630859375
1534599643.150.96630859375
1534599643.150.9658203125
1534599643.150.9658203125
1534599643.150.966064453125
1534599643.150.966064453125
1534599643.150.965576171875
1534599643.150.965576171875
1534599643.150.963623046875
1534599643.160.963623046875
1534599643.160.96484375
1534599643.160.96484375
1534599643.160.963623046875
1534599643.160.963623046875
1534599643.160.964599609375
1534599643.160.964599609375
1534599643.160.9638671875
1534599643.160.9638671875
1534599643.160.964111328125
1534599643.160.964111328125
1534599643.160.964111328125
1534599643.160.968017578125
1534599643.160.968017578125
1534599643.160.966796875
1534599643.160.966796875
1534599643.160.967041015625
1534599643.160.967041015625
1534599643.160.968505859375
1534599643.160.968505859375
1534599643.160.965576171875
1534599643.170.965576171875
1534599643.170.96484375
1534599643.170.96484375
1534599643.170.964599609375
1534599643.170.964599609375
1534599643.170.9658203125
1534599643.170.9658203125
1534599643.170.9658203125
1534599643.170.9658203125
1534599643.170.96484375
1534599643.170.96484375
1534599643.170.966552734375
1534599643.170.966552734375
1534599643.170.966064453125
1534599643.170.966064453125
1534599643.170.96630859375
1534599643.170.96630859375
1534599643.170.966796875
1534599643.170.966796875
1534599643.170.965087890625
1534599643.170.965087890625
1534599643.180.96533203125
1534599643.180.96533203125
1534599643.180.9658203125
1534599643.180.9658203125
1534599643.180.964599609375
1534599643.180.964599609375
1534599643.180.964111328125
1534599643.180.964111328125
1534599643.180.964111328125
1534599643.180.964111328125
1534599643.180.964111328125
1534599643.180.964111328125
1534599643.180.963623046875
1534599643.180.963623046875
1534599643.180.962890625
1534599643.180.962890625
1534599643.180.9619140625
1534599643.180.9619140625
1534599643.180.961181640625
1534599643.180.961181640625
1534599643.190.9599609375
1534599643.190.9599609375
1534599643.190.9609375
1534599643.190.9609375
1534599643.190.96240234375
1534599643.190.96240234375
1534599643.190.96435546875
1534599643.190.96435546875
1534599643.190.962158203125
1534599643.190.962158203125
1534599643.190.962890625
1534599643.190.962890625
1534599643.190.96630859375
1534599643.190.96630859375
1534599643.190.9658203125
1534599643.190.9658203125
1534599643.190.96484375
1534599643.190.96484375
1534599643.190.961669921875
1534599643.190.961669921875
1534599643.20.963134765625
1534599643.20.963134765625
1534599643.20.966064453125
1534599643.20.966064453125
1534599643.20.966064453125
1534599643.20.96728515625
1534599643.20.96728515625
1534599643.20.96630859375
1534599643.20.96630859375
1534599643.20.964599609375
1534599643.20.964599609375
1534599643.20.96533203125
1534599643.20.96533203125
1534599643.20.96435546875
1534599643.20.96435546875
1534599643.20.966796875
1534599643.20.966796875
1534599643.20.9677734375
1534599643.20.9677734375
1534599643.20.96630859375
1534599643.20.96630859375
1534599643.210.966552734375
1534599643.210.966552734375
1534599643.210.96533203125
1534599643.210.96533203125
1534599643.210.963623046875
1534599643.210.963623046875
1534599643.210.9638671875
1534599643.210.9638671875
1534599643.210.9638671875
1534599643.210.9638671875
1534599643.210.9638671875
1534599643.210.96533203125
1534599643.210.96533203125
1534599643.210.966796875
1534599643.210.966796875
1534599643.210.96484375
1534599643.210.96484375
1534599643.210.966064453125
1534599643.210.966064453125
1534599643.210.968994140625
1534599643.210.968994140625
1534599643.220.97021484375
1534599643.220.97021484375
1534599643.220.97021484375
1534599643.220.97021484375
1534599643.220.96875
1534599643.220.96875
1534599643.220.9658203125
1534599643.220.9658203125
1534599643.220.962890625
1534599643.220.962890625
1534599643.220.965576171875
1534599643.230.965576171875
1534599643.230.966796875
1534599643.230.96240234375
1534599643.230.96240234375
1534599643.230.962646484375
1534599643.230.960693359375
1534599643.230.960693359375
1534599643.230.9609375
1534599643.230.964111328125
1534599643.230.964111328125
1534599643.240.96435546875
1534599643.240.96435546875
1534599643.240.966796875
1534599643.240.966796875
1534599643.240.966064453125
1534599643.240.9638671875
1534599643.240.964599609375
1534599643.240.965087890625
1534599643.240.965087890625
1534599643.240.963623046875
1534599643.240.963623046875
1534599643.240.9638671875
1534599643.250.963134765625
1534599643.250.963134765625
1534599643.250.96240234375
1534599643.250.96240234375
1534599643.250.96337890625
1534599643.250.96337890625
1534599643.250.960693359375
1534599643.250.96142578125
1534599643.250.96142578125
1534599643.250.96435546875
1534599643.250.96435546875
1534599643.260.96435546875
1534599643.260.9609375
1534599643.260.963134765625
1534599643.260.9658203125
1534599643.260.9658203125
1534599643.260.965576171875
1534599643.260.965576171875
1534599643.260.963623046875
1534599643.260.962890625
1534599643.260.962890625
1534599643.260.963134765625
1534599643.260.963134765625
1534599643.270.966064453125
1534599643.270.966552734375
1534599643.270.966552734375
1534599643.270.966552734375
1534599643.270.966552734375
1534599643.270.9677734375
1534599643.270.966064453125
1534599643.270.967529296875
1534599643.270.967529296875
1534599643.270.9677734375
1534599643.270.9677734375
1534599643.270.966796875
1534599643.270.96533203125
1534599643.270.965087890625
1534599643.270.965087890625
1534599643.280.96630859375
1534599643.280.96533203125
1534599643.280.96533203125
1534599643.280.9677734375
1534599643.280.9677734375
1534599643.280.96630859375
1534599643.280.96630859375
1534599643.280.962158203125
1534599643.280.962158203125
1534599643.280.9638671875
1534599643.280.9638671875
1534599643.280.96484375
1534599643.280.9658203125
1534599643.280.9658203125
1534599643.280.965576171875
1534599643.280.965576171875
1534599643.280.964599609375
1534599643.280.964599609375
1534599643.280.965576171875
1534599643.290.965576171875
1534599643.290.968017578125
1534599643.290.968017578125
1534599643.290.971923828125
1534599643.290.971923828125
1534599643.290.9716796875
1534599643.290.9716796875
1534599643.290.967041015625
1534599643.290.967041015625
1534599643.290.96630859375
1534599643.290.96630859375
1534599643.290.96923828125
1534599643.290.96923828125
1534599643.290.96875
1534599643.290.96875
1534599643.290.96875
1534599643.290.9697265625
1534599643.290.969970703125
1534599643.290.969970703125
1534599643.290.969970703125
1534599643.290.965576171875
1534599643.30.965576171875
1534599643.30.9638671875
1534599643.30.9638671875
1534599643.30.964111328125
1534599643.30.964111328125
1534599643.30.9638671875
1534599643.30.9638671875
1534599643.30.967041015625
1534599643.30.967041015625
1534599643.30.965576171875
1534599643.30.965576171875
1534599643.30.96435546875
1534599643.30.96435546875
1534599643.30.97021484375
1534599643.30.97021484375
1534599643.30.97314453125
1534599643.30.97314453125
1534599643.30.969482421875
1534599643.30.969482421875
1534599643.30.96875
1534599643.310.96875
1534599643.310.969482421875
1534599643.310.969482421875
1534599643.310.967529296875
1534599643.310.967529296875
1534599643.310.966552734375
1534599643.310.966552734375
1534599643.310.966552734375
1534599643.310.968017578125
1534599643.310.968017578125
1534599643.310.968505859375
1534599643.310.968505859375
1534599643.310.968017578125
1534599643.310.968017578125
1534599643.310.967529296875
1534599643.310.967529296875
1534599643.310.96728515625
1534599643.310.96728515625
1534599643.310.967529296875
1534599643.310.967529296875
1534599643.310.9658203125
1534599643.320.9658203125
1534599643.320.965087890625
1534599643.320.965087890625
1534599643.320.96484375
1534599643.320.96484375
1534599643.320.966064453125
1534599643.320.966064453125
1534599643.320.966552734375
1534599643.320.96484375
1534599643.320.96484375
1534599643.320.96337890625
1534599643.320.964111328125
1534599643.320.964111328125
1534599643.320.964599609375
1534599643.320.964599609375
1534599643.320.964111328125
1534599643.320.964111328125
1534599643.320.964111328125
1534599643.320.962646484375
1534599643.330.962646484375
1534599643.330.9658203125
1534599643.330.9658203125
1534599643.330.96875
1534599643.330.96875
1534599643.330.966796875
1534599643.330.966796875
1534599643.330.9638671875
1534599643.330.9638671875
1534599643.330.96533203125
1534599643.330.96533203125
1534599643.330.967529296875
1534599643.330.967529296875
1534599643.330.9658203125
1534599643.330.9658203125
1534599643.330.9658203125
1534599643.330.9658203125
1534599643.330.966064453125
1534599643.330.966064453125
1534599643.330.963623046875
1534599643.330.963623046875
1534599643.340.96337890625
1534599643.340.96337890625
1534599643.340.966552734375
1534599643.340.966552734375
1534599643.340.964111328125
1534599643.340.964111328125
1534599643.340.962890625
1534599643.340.962890625
1534599643.340.962890625
1534599643.340.964599609375
1534599643.340.964599609375
1534599643.340.96240234375
1534599643.340.96240234375
1534599643.340.96240234375
1534599643.340.96240234375
1534599643.340.96484375
1534599643.340.96484375
1534599643.340.967041015625
1534599643.340.967041015625
1534599643.340.96630859375
1534599643.340.96630859375
1534599643.350.965576171875
1534599643.350.965576171875
1534599643.350.966064453125
1534599643.350.966064453125
1534599643.350.96484375
1534599643.350.96484375
1534599643.350.96630859375
1534599643.350.96630859375
1534599643.350.96630859375
1534599643.350.96630859375
1534599643.350.96484375
1534599643.350.96484375
1534599643.350.9658203125
1534599643.350.9658203125
1534599643.350.963623046875
1534599643.350.963623046875
1534599643.350.9638671875
1534599643.350.9638671875
1534599643.350.966796875
1534599643.350.966796875
1534599643.360.966796875
1534599643.360.96826171875
1534599643.360.96826171875
1534599643.360.970703125
1534599643.360.9697265625
1534599643.360.9697265625
1534599643.360.965576171875
1534599643.360.965576171875
1534599643.360.965576171875
1534599643.360.965576171875
1534599643.360.966552734375
1534599643.360.966552734375
1534599643.360.9658203125
1534599643.360.9658203125
1534599643.360.968017578125
1534599643.360.968017578125
1534599643.360.968017578125
1534599643.360.968017578125
1534599643.360.9619140625
1534599643.360.9619140625
1534599643.370.96044921875
1534599643.370.96435546875
1534599643.370.96435546875
1534599643.370.964111328125
1534599643.370.964111328125
1534599643.370.963623046875
1534599643.370.963623046875
1534599643.370.96630859375
1534599643.370.96630859375
1534599643.370.969482421875
1534599643.370.969482421875
1534599643.370.968505859375
1534599643.370.968505859375
1534599643.370.967529296875
1534599643.370.967529296875
1534599643.370.967529296875
1534599643.370.967529296875
1534599643.370.962646484375
1534599643.370.962646484375
1534599643.380.96240234375
1534599643.380.96240234375
1534599643.380.9677734375
1534599643.380.9677734375
1534599643.380.966552734375
1534599643.380.966552734375
1534599643.380.96337890625
1534599643.380.96337890625
1534599643.380.96533203125
1534599643.390.96533203125
1534599643.390.968505859375
1534599643.390.964599609375
1534599643.390.964599609375
1534599643.390.963134765625
1534599643.390.9609375
1534599643.390.9609375
1534599643.390.965576171875
1534599643.390.9638671875
1534599643.390.9638671875
1534599643.40.96142578125
1534599643.40.96142578125
1534599643.40.964599609375
1534599643.40.964599609375
1534599643.40.967041015625
1534599643.40.96728515625
1534599643.40.96728515625
1534599643.40.967529296875
1534599643.40.967529296875
1534599643.40.966064453125
1534599643.40.96337890625
1534599643.40.96337890625
1534599643.410.96533203125
1534599643.410.968017578125
1534599643.410.967529296875
1534599643.410.967529296875
1534599643.410.968505859375
1534599643.410.968505859375
1534599643.410.968505859375
1534599643.410.968017578125
1534599643.410.968017578125
1534599643.420.967529296875
1534599643.420.968505859375
1534599643.420.96875
1534599643.420.96875
1534599643.420.96533203125
1534599643.420.963134765625
1534599643.420.963134765625
1534599643.420.96240234375
1534599643.420.96240234375
1534599643.420.963134765625
1534599643.420.96240234375
1534599643.430.96240234375
1534599643.430.964599609375
1534599643.430.96337890625
1534599643.430.96337890625
1534599643.430.963134765625
1534599643.430.963134765625
1534599643.430.963134765625
1534599643.430.962158203125
1534599643.430.962158203125
1534599643.430.963623046875
1534599643.430.963623046875
1534599643.430.967529296875
1534599643.430.967529296875
1534599643.430.96435546875
1534599643.430.96435546875
1534599643.430.961669921875
1534599643.430.961669921875
1534599643.430.962158203125
1534599643.440.962158203125
1534599643.440.960205078125
1534599643.440.960205078125
1534599643.440.9638671875
1534599643.440.9638671875
1534599643.440.966552734375
1534599643.440.966552734375
1534599643.440.967041015625
1534599643.440.967041015625
1534599643.440.966796875
1534599643.440.966796875
1534599643.440.961181640625
1534599643.440.961181640625
1534599643.440.9609375
1534599643.440.9609375
1534599643.440.963623046875
1534599643.440.963623046875
1534599643.440.9638671875
1534599643.440.9638671875
1534599643.440.964111328125
1534599643.450.964111328125
1534599643.450.96435546875
1534599643.450.96435546875
1534599643.450.964599609375
1534599643.450.964599609375
1534599643.450.964599609375
1534599643.450.964599609375
1534599643.450.965087890625
1534599643.450.965087890625
1534599643.450.967041015625
1534599643.450.967041015625
1534599643.450.96826171875
1534599643.450.96826171875
1534599643.450.9677734375
1534599643.450.9677734375
1534599643.450.966064453125
1534599643.450.966064453125
1534599643.450.967041015625
1534599643.450.967041015625
1534599643.450.96630859375
1534599643.460.96630859375
1534599643.460.965087890625
1534599643.460.965087890625
1534599643.460.9658203125
1534599643.460.9658203125
1534599643.460.966552734375
1534599643.460.966552734375
1534599643.460.968505859375
1534599643.460.968505859375
1534599643.460.9658203125
1534599643.460.9658203125
1534599643.460.96240234375
1534599643.460.96240234375
1534599643.460.963623046875
1534599643.460.963623046875
1534599643.460.96533203125
1534599643.460.96533203125
1534599643.460.965087890625
1534599643.460.965087890625
1534599643.460.9658203125
1534599643.470.9658203125
1534599643.470.963623046875
1534599643.470.963623046875
1534599643.470.961181640625
1534599643.470.961181640625
1534599643.470.962890625
1534599643.470.962890625
1534599643.470.963623046875
1534599643.470.963623046875
1534599643.470.9638671875
1534599643.470.9638671875
1534599643.470.966064453125
1534599643.470.966064453125
1534599643.470.968505859375
1534599643.470.968505859375
1534599643.470.968505859375
1534599643.470.966796875
1534599643.470.9638671875
1534599643.470.9638671875
1534599643.470.96240234375
1534599643.480.96240234375
1534599643.480.962158203125
1534599643.480.962158203125
1534599643.480.9619140625
1534599643.480.9619140625
1534599643.480.961669921875
1534599643.480.961669921875
1534599643.480.96142578125
1534599643.480.96142578125
1534599643.480.96142578125
1534599643.480.960205078125
1534599643.480.960205078125
1534599643.480.9658203125
1534599643.480.9658203125
1534599643.480.97021484375
1534599643.480.97021484375
1534599643.480.966552734375
1534599643.480.966552734375
1534599643.480.962646484375
1534599643.480.962646484375
1534599643.480.962890625
1534599643.490.962890625
1534599643.490.965087890625
1534599643.490.965087890625
1534599643.490.967041015625
1534599643.490.967041015625
1534599643.490.967041015625
1534599643.490.967041015625
1534599643.490.964599609375
1534599643.490.964599609375
1534599643.490.964599609375
1534599643.490.964599609375
1534599643.490.966064453125
1534599643.490.966064453125
1534599643.490.9677734375
1534599643.490.9677734375
1534599643.490.9677734375
1534599643.490.966552734375
1534599643.490.966552734375
1534599643.490.961669921875
1534599643.490.961669921875
1534599643.490.961181640625
1534599643.50.961181640625
1534599643.50.9638671875
1534599643.50.9638671875
1534599643.50.966552734375
1534599643.50.966552734375
1534599643.50.96875
1534599643.50.96875
1534599643.50.966552734375
1534599643.50.966552734375
1534599643.50.963134765625
1534599643.50.963134765625
1534599643.50.96435546875
1534599643.50.96435546875
1534599643.50.966552734375
1534599643.50.966552734375
1534599643.50.966796875
1534599643.50.966796875
1534599643.50.964599609375
1534599643.50.964599609375
1534599643.50.962890625
1534599643.50.962890625
1534599643.510.966064453125
1534599643.510.966064453125
1534599643.510.965576171875
1534599643.510.965576171875
1534599643.510.965576171875
1534599643.510.963134765625
1534599643.510.963134765625
1534599643.510.963134765625
1534599643.510.963134765625
1534599643.510.964111328125
1534599643.510.964111328125
1534599643.510.968017578125
1534599643.510.968017578125
1534599643.510.96728515625
1534599643.510.96728515625
1534599643.510.96435546875
1534599643.510.96435546875
1534599643.510.96240234375
1534599643.510.96240234375
1534599643.510.962646484375
1534599643.520.962646484375
1534599643.520.96484375
1534599643.520.96484375
1534599643.520.96337890625
1534599643.520.96337890625
1534599643.520.96142578125
1534599643.520.96142578125
1534599643.520.967529296875
1534599643.520.967529296875
1534599643.520.969482421875
1534599643.520.969482421875
1534599643.520.966796875
1534599643.520.966796875
1534599643.520.970947265625
1534599643.520.970947265625
1534599643.520.970947265625
1534599643.520.9697265625
1534599643.520.9697265625
1534599643.530.964599609375
1534599643.530.966796875
1534599643.530.964599609375
1534599643.540.964599609375
1534599643.540.96484375
1534599643.540.96484375
1534599643.540.9677734375
1534599643.540.96875
1534599643.540.96337890625
1534599643.540.96337890625
1534599643.540.965087890625
1534599643.540.965087890625
1534599643.540.96728515625
1534599643.540.96728515625
1534599643.540.962890625
1534599643.540.96240234375
1534599643.540.96240234375
1534599643.540.96533203125
1534599643.540.964111328125
1534599643.550.964111328125
1534599643.550.964599609375
1534599643.550.962158203125
1534599643.550.962158203125
1534599643.550.965087890625
1534599643.550.965087890625
1534599643.550.965087890625
1534599643.550.965087890625
1534599643.550.96826171875
1534599643.550.969482421875
1534599643.550.969482421875
1534599643.560.962646484375
1534599643.560.962646484375
1534599643.560.9638671875
1534599643.560.96875
1534599643.560.96875
1534599643.560.966796875
1534599643.560.9658203125
1534599643.560.9658203125
1534599643.560.965576171875
1534599643.560.965576171875
1534599643.560.964599609375
1534599643.560.962158203125
1534599643.560.962158203125
1534599643.560.96337890625
1534599643.560.96337890625
1534599643.570.966796875
1534599643.570.962158203125
1534599643.570.962158203125
1534599643.570.962646484375
1534599643.570.96337890625
1534599643.570.962158203125
1534599643.570.962158203125
1534599643.570.95947265625
1534599643.570.962646484375
1534599643.570.962646484375
1534599643.580.963623046875
1534599643.580.963623046875
1534599643.580.964599609375
1534599643.580.965087890625
1534599643.580.967529296875
1534599643.580.967529296875
1534599643.580.967529296875
1534599643.580.965087890625
1534599643.580.965087890625
1534599643.580.962158203125
1534599643.580.962158203125
1534599643.580.96240234375
1534599643.580.96240234375
1534599643.580.962646484375
1534599643.590.9609375
1534599643.590.960693359375
1534599643.590.960693359375
1534599643.590.96142578125
1534599643.590.96142578125
1534599643.590.96142578125
1534599643.590.960205078125
1534599643.590.960205078125
1534599643.590.96044921875
1534599643.590.96435546875
1534599643.590.96435546875
1534599643.590.96435546875
1534599643.590.961669921875
1534599643.590.961669921875
1534599643.590.96142578125
1534599643.590.96142578125
1534599643.590.963134765625
1534599643.590.963134765625
1534599643.590.9619140625
1534599643.590.9619140625
1534599643.60.962890625
1534599643.60.962890625
1534599643.60.965087890625
1534599643.60.965087890625
1534599643.60.96728515625
1534599643.60.96728515625
1534599643.60.965087890625
1534599643.60.964599609375
1534599643.60.96533203125
1534599643.60.9677734375
1534599643.60.96923828125
1534599643.610.96337890625
1534599643.610.965087890625
1534599643.610.970947265625
1534599643.610.970947265625
1534599643.610.970703125
1534599643.610.970703125
1534599643.610.97021484375
1534599643.610.97021484375
1534599643.610.971923828125
1534599643.610.971923828125
1534599643.610.969482421875
1534599643.610.969482421875
1534599643.610.96826171875
1534599643.610.96826171875
1534599643.610.970703125
1534599643.610.970703125
1534599643.610.97314453125
1534599643.610.97314453125
1534599643.610.971923828125
1534599643.610.971923828125
1534599643.610.970458984375
1534599643.620.970458984375
1534599643.620.969482421875
1534599643.620.969482421875
1534599643.620.96533203125
1534599643.620.96533203125
1534599643.620.96728515625
1534599643.620.96728515625
1534599643.620.968017578125
1534599643.620.968017578125
1534599643.620.96533203125
1534599643.620.96533203125
1534599643.620.96533203125
1534599643.620.967529296875
1534599643.620.967529296875
1534599643.620.968505859375
1534599643.620.968505859375
1534599643.620.969970703125
1534599643.620.969970703125
1534599643.620.972412109375
1534599643.620.972412109375
1534599643.620.96923828125
1534599643.630.96923828125
1534599643.630.966796875
1534599643.630.966796875
1534599643.630.967529296875
1534599643.630.967529296875
1534599643.630.96923828125
1534599643.630.96923828125
1534599643.630.970703125
1534599643.630.970703125
1534599643.630.96630859375
1534599643.630.96630859375
1534599643.630.963134765625
1534599643.630.963134765625
1534599643.630.96728515625
1534599643.630.96728515625
1534599643.630.965087890625
1534599643.630.965087890625
1534599643.630.962158203125
1534599643.630.962158203125
1534599643.630.965576171875
1534599643.640.965576171875
1534599643.640.965576171875
1534599643.640.9638671875
1534599643.640.9638671875
1534599643.640.960693359375
1534599643.640.960693359375
1534599643.640.9599609375
1534599643.640.96142578125
1534599643.640.96142578125
1534599643.640.963623046875
1534599643.640.963623046875
1534599643.640.9619140625
1534599643.640.9619140625
1534599643.640.96337890625
1534599643.640.96337890625
1534599643.640.966552734375
1534599643.640.966552734375
1534599643.640.9638671875
1534599643.640.9638671875
1534599643.640.9638671875
1534599643.640.963134765625
1534599643.650.963134765625
1534599643.650.9638671875
1534599643.650.9638671875
1534599643.650.96044921875
1534599643.650.96044921875
1534599643.650.958251953125
1534599643.650.958251953125
1534599643.650.958251953125
1534599643.650.958251953125
1534599643.650.962646484375
1534599643.650.962646484375
1534599643.650.96484375
1534599643.650.96484375
1534599643.650.96142578125
1534599643.650.96142578125
1534599643.650.961669921875
1534599643.650.961669921875
1534599643.650.961181640625
1534599643.650.961181640625
1534599643.650.96142578125
1534599643.660.96142578125
1534599643.660.964111328125
1534599643.660.964111328125
1534599643.660.962646484375
1534599643.660.962646484375
1534599643.660.962646484375
1534599643.660.962646484375
1534599643.660.962646484375
1534599643.660.966064453125
1534599643.660.966064453125
1534599643.660.9658203125
1534599643.660.9658203125
1534599643.660.964111328125
1534599643.660.964111328125
1534599643.660.962158203125
1534599643.660.962158203125
1534599643.660.963623046875
1534599643.660.963623046875
1534599643.660.968505859375
1534599643.660.968505859375
1534599643.660.967529296875
1534599643.670.967529296875
1534599643.670.96728515625
1534599643.670.96728515625
1534599643.670.9697265625
1534599643.670.9697265625
1534599643.670.9677734375
1534599643.670.9677734375
1534599643.670.966796875
1534599643.670.966796875
1534599643.670.969970703125
1534599643.670.969970703125
1534599643.670.968017578125
1534599643.670.968017578125
1534599643.670.96630859375
1534599643.670.96630859375
1534599643.670.9677734375
1534599643.670.9677734375
1534599643.670.96533203125
1534599643.670.96533203125
1534599643.670.966796875
1534599643.680.966796875
1534599643.680.968994140625
1534599643.680.968994140625
1534599643.680.968017578125
1534599643.680.968017578125
1534599643.680.967529296875
1534599643.680.967529296875
1534599643.680.967529296875
1534599643.680.967529296875
1534599643.680.96728515625
1534599643.680.96728515625
1534599643.680.967041015625
1534599643.680.967041015625
1534599643.680.968017578125
1534599643.680.968017578125
1534599643.680.966796875
1534599643.680.966796875
1534599643.680.966796875
1534599643.680.966552734375
1534599643.680.966552734375
1534599643.680.969482421875
1534599643.690.969482421875
1534599643.690.968994140625
1534599643.690.968017578125
1534599643.690.9677734375
1534599643.70.966552734375
1534599643.70.966552734375
1534599643.70.966552734375
1534599643.70.965576171875
1534599643.70.965576171875
1534599643.70.9658203125
1534599643.70.96240234375
1534599643.70.96240234375
1534599643.70.962646484375
1534599643.70.962646484375
1534599643.70.965576171875
1534599643.710.965576171875
1534599643.710.96923828125
1534599643.710.9697265625
1534599643.710.9697265625
1534599643.710.965087890625
1534599643.710.961181640625
1534599643.710.961181640625
1534599643.710.962890625
1534599643.710.9609375
1534599643.710.9609375
1534599643.710.961669921875
1534599643.710.961669921875
1534599643.710.965087890625
1534599643.710.965087890625
1534599643.710.96435546875
1534599643.710.9638671875
1534599643.720.9638671875
1534599643.720.9658203125
1534599643.720.9658203125
1534599643.720.965576171875
1534599643.720.96435546875
1534599643.730.96435546875
1534599643.730.965576171875
1534599643.730.968994140625
1534599643.730.968994140625
1534599643.730.966064453125
1534599643.730.966064453125
1534599643.730.962890625
1534599643.730.962890625
1534599643.730.96630859375
1534599643.730.968017578125
1534599643.730.968017578125
1534599643.730.96533203125
1534599643.730.963134765625
1534599643.730.963134765625
1534599643.730.964111328125
1534599643.730.964111328125
1534599643.730.963623046875
1534599643.740.963623046875
1534599643.740.968994140625
1534599643.740.966064453125
1534599643.740.96337890625
1534599643.740.96337890625
1534599643.740.966552734375
1534599643.740.966552734375
1534599643.740.96435546875
1534599643.740.96435546875
1534599643.740.964111328125
1534599643.740.964111328125
1534599643.740.9638671875
1534599643.740.9638671875
1534599643.740.964599609375
1534599643.740.964599609375
1534599643.750.964599609375
1534599643.750.967529296875
1534599643.750.966796875
1534599643.750.966796875
1534599643.750.967529296875
1534599643.750.967529296875
1534599643.750.966552734375
1534599643.750.966552734375
1534599643.750.967529296875
1534599643.750.967529296875
1534599643.750.9658203125
1534599643.750.9658203125
1534599643.750.96630859375
1534599643.750.96630859375
1534599643.750.97021484375
1534599643.750.97021484375
1534599643.750.97021484375
1534599643.750.96728515625
1534599643.750.96533203125
1534599643.750.96533203125
1534599643.750.9638671875
1534599643.760.9638671875
1534599643.760.962646484375
1534599643.760.962646484375
1534599643.760.962646484375
1534599643.760.964111328125
1534599643.760.964111328125
1534599643.760.96337890625
1534599643.760.96337890625
1534599643.760.96240234375
1534599643.760.96240234375
1534599643.760.96435546875
1534599643.760.96435546875
1534599643.760.96435546875
1534599643.760.96435546875
1534599643.760.96728515625
1534599643.760.96728515625
1534599643.760.97021484375
1534599643.760.97021484375
1534599643.760.967041015625
1534599643.760.967041015625
1534599643.770.964111328125
1534599643.770.964111328125
1534599643.770.96484375
1534599643.770.96484375
1534599643.770.966552734375
1534599643.770.966552734375
1534599643.770.965087890625
1534599643.770.965087890625
1534599643.770.965576171875
1534599643.770.965576171875
1534599643.770.962890625
1534599643.770.962890625
1534599643.770.962890625
1534599643.770.9609375
1534599643.770.9609375
1534599643.770.964599609375
1534599643.770.964599609375
1534599643.770.96435546875
1534599643.770.96435546875
1534599643.770.96435546875
1534599643.770.9677734375
1534599643.780.9677734375
1534599643.780.967529296875
1534599643.780.967529296875
1534599643.780.965087890625
1534599643.780.965087890625
1534599643.780.9658203125
1534599643.780.9658203125
1534599643.780.9658203125
1534599643.780.96533203125
1534599643.780.96533203125
1534599643.780.968017578125
1534599643.780.968017578125
1534599643.780.96875
1534599643.780.96875
1534599643.780.966796875
1534599643.780.966796875
1534599643.780.965087890625
1534599643.780.965087890625
1534599643.780.963623046875
1534599643.780.963623046875
1534599643.790.96484375
1534599643.790.96484375
1534599643.790.965576171875
1534599643.790.965576171875
1534599643.790.966064453125
1534599643.790.966064453125
1534599643.790.965576171875
1534599643.790.965576171875
1534599643.790.966064453125
1534599643.790.966064453125
1534599643.790.966064453125
1534599643.790.966064453125
1534599643.790.966796875
1534599643.790.966796875
1534599643.790.968017578125
1534599643.790.968017578125
1534599643.790.968017578125
1534599643.790.96484375
1534599643.790.964599609375
1534599643.790.964599609375
1534599643.790.964599609375
1534599643.80.9697265625
1534599643.80.9697265625
1534599643.80.9716796875
1534599643.80.9716796875
1534599643.80.968994140625
1534599643.80.968994140625
1534599643.80.96826171875
1534599643.80.96826171875
1534599643.80.96826171875
1534599643.80.96826171875
1534599643.80.966796875
1534599643.80.966796875
1534599643.80.965576171875
1534599643.80.965576171875
1534599643.80.963134765625
1534599643.80.963134765625
1534599643.80.962158203125
1534599643.80.962158203125
1534599643.80.962646484375
1534599643.80.962646484375
1534599643.80.96337890625
1534599643.810.96337890625
1534599643.810.964599609375
1534599643.810.964599609375
1534599643.810.963623046875
1534599643.810.963623046875
1534599643.810.963623046875
1534599643.810.9658203125
1534599643.810.9658203125
1534599643.810.966552734375
1534599643.810.966552734375
1534599643.810.964111328125
1534599643.810.964111328125
1534599643.810.9619140625
1534599643.810.9619140625
1534599643.810.96484375
1534599643.810.968017578125
1534599643.810.968017578125
1534599643.810.9638671875
1534599643.810.9638671875
1534599643.810.96484375
1534599643.820.96484375
1534599643.820.9658203125
1534599643.820.9658203125
1534599643.820.963623046875
1534599643.820.963623046875
1534599643.820.96484375
1534599643.820.96484375
1534599643.820.96484375
1534599643.820.9638671875
1534599643.820.9638671875
1534599643.820.964599609375
1534599643.820.964599609375
1534599643.820.96728515625
1534599643.820.96728515625
1534599643.820.964599609375
1534599643.820.964599609375
1534599643.820.96533203125
1534599643.820.96533203125
1534599643.820.968505859375
1534599643.820.968505859375
1534599643.820.9658203125
1534599643.830.9658203125
1534599643.830.96337890625
1534599643.830.96337890625
1534599643.830.963134765625
1534599643.830.963134765625
1534599643.830.962890625
1534599643.830.962890625
1534599643.830.9658203125
1534599643.830.9658203125
1534599643.830.966064453125
1534599643.830.966064453125
1534599643.830.96533203125
1534599643.830.96533203125
1534599643.840.96533203125
1534599643.840.966064453125
1534599643.840.966796875
1534599643.840.96826171875
1534599643.840.96630859375
1534599643.840.96630859375
1534599643.840.96728515625
1534599643.850.96875
1534599643.850.96875
1534599643.850.967529296875
1534599643.850.967529296875
1534599643.850.96923828125
1534599643.850.9697265625
1534599643.850.9697265625
1534599643.850.968505859375
1534599643.850.968505859375
1534599643.850.969970703125
1534599643.850.96923828125
1534599643.850.96923828125
1534599643.850.967041015625
1534599643.850.967041015625
1534599643.850.964599609375
1534599643.850.964599609375
1534599643.860.962646484375
1534599643.860.963623046875
1534599643.860.968017578125
1534599643.860.965087890625
1534599643.860.96240234375
1534599643.860.96240234375
1534599643.860.9638671875
1534599643.870.9638671875
1534599643.870.96337890625
1534599643.870.96337890625
1534599643.870.96337890625
1534599643.870.96435546875
1534599643.870.9638671875
1534599643.870.962890625
1534599643.870.962890625
1534599643.870.963134765625
1534599643.870.962646484375
1534599643.870.96142578125
1534599643.870.96142578125
1534599643.870.9599609375
1534599643.880.95947265625
1534599643.880.964599609375
1534599643.880.964599609375
1534599643.880.964111328125
1534599643.880.964111328125
1534599643.880.964111328125
1534599643.880.96484375
1534599643.880.96484375
1534599643.880.967041015625
1534599643.880.96484375
1534599643.880.96484375
1534599643.880.964599609375
1534599643.890.964599609375
1534599643.890.96728515625
1534599643.890.96728515625
1534599643.890.968017578125
1534599643.890.968017578125
1534599643.890.9677734375
1534599643.890.9677734375
1534599643.890.96923828125
1534599643.890.96923828125
1534599643.890.9677734375
1534599643.890.9677734375
1534599643.890.966796875
1534599643.890.966796875
1534599643.890.967529296875
1534599643.890.967529296875
1534599643.890.96728515625
1534599643.890.96728515625
1534599643.890.96728515625
1534599643.890.96728515625
1534599643.890.967041015625
1534599643.90.967041015625
1534599643.90.966064453125
1534599643.90.966064453125
1534599643.90.96630859375
1534599643.90.96630859375
1534599643.90.9677734375
1534599643.90.9677734375
1534599643.90.96728515625
1534599643.90.96728515625
1534599643.90.96923828125
1534599643.90.96923828125
1534599643.90.971923828125
1534599643.90.971923828125
1534599643.90.970458984375
1534599643.90.970458984375
1534599643.90.968017578125
1534599643.90.968017578125
1534599643.90.966552734375
1534599643.90.966552734375
1534599643.90.966796875
1534599643.90.966796875
1534599643.910.9658203125
1534599643.910.9658203125
1534599643.910.965087890625
1534599643.910.965087890625
1534599643.910.964599609375
1534599643.910.964599609375
1534599643.910.962646484375
1534599643.910.962646484375
1534599643.910.963623046875
1534599643.910.963623046875
1534599643.910.963623046875
1534599643.910.962890625
1534599643.910.962890625
1534599643.910.962646484375
1534599643.910.962646484375
1534599643.910.962646484375
1534599643.910.962646484375
1534599643.910.964599609375
1534599643.920.966552734375
1534599643.920.964599609375
1534599643.920.961669921875
1534599643.920.9677734375
1534599643.920.9697265625
1534599643.920.968017578125
1534599643.920.96435546875
1534599643.920.962890625
1534599643.920.962890625
1534599643.920.963623046875
1534599643.920.963623046875
1534599643.920.96630859375
1534599643.920.96630859375
1534599643.930.96826171875
1534599643.930.96826171875
1534599643.930.9638671875
1534599643.930.9638671875
1534599643.930.9638671875
1534599643.930.9638671875
1534599643.930.9638671875
1534599643.930.970703125
1534599643.930.970703125
1534599643.930.969482421875
1534599643.930.969482421875
1534599643.930.964111328125
1534599643.930.964111328125
1534599643.930.9619140625
1534599643.930.9619140625
1534599643.930.964599609375
1534599643.930.964599609375
1534599643.930.964111328125
1534599643.930.964111328125
1534599643.930.9658203125
1534599643.930.9658203125
1534599643.940.968994140625
1534599643.940.968994140625
1534599643.940.967529296875
1534599643.940.967529296875
1534599643.940.966064453125
1534599643.940.966064453125
1534599643.940.96484375
1534599643.940.96484375
1534599643.940.9697265625
1534599643.940.9697265625
1534599643.940.97021484375
1534599643.940.97021484375
1534599643.940.97021484375
1534599643.940.968994140625
1534599643.940.968994140625
1534599643.940.96875
1534599643.940.96875
1534599643.940.96728515625
1534599643.940.96728515625
1534599643.940.970703125
1534599643.940.970703125
1534599643.950.972412109375
1534599643.950.972412109375
1534599643.950.969482421875
1534599643.950.969482421875
1534599643.950.96728515625
1534599643.950.96728515625
1534599643.950.968017578125
1534599643.950.968017578125
1534599643.950.964599609375
1534599643.950.964599609375
1534599643.950.965087890625
1534599643.950.965087890625
1534599643.950.96630859375
1534599643.950.96630859375
1534599643.950.96435546875
1534599643.950.96435546875
1534599643.950.968017578125
1534599643.950.968017578125
1534599643.950.96630859375
1534599643.950.96630859375
1534599643.950.96337890625
1534599643.960.96337890625
1534599643.960.96337890625
1534599643.960.966064453125
1534599643.960.966064453125
1534599643.960.965576171875
1534599643.960.965576171875
1534599643.960.96337890625
1534599643.960.96337890625
1534599643.960.966552734375
1534599643.960.966552734375
1534599643.960.96630859375
1534599643.960.96630859375
1534599643.960.9638671875
1534599643.960.9638671875
1534599643.960.9638671875
1534599643.960.9638671875
1534599643.960.9638671875
1534599643.960.9638671875
1534599643.960.964599609375
1534599643.960.964599609375
1534599643.960.964111328125
1534599643.970.964111328125
1534599643.970.965087890625
1534599643.970.965087890625
1534599643.970.96435546875
1534599643.970.96435546875
1534599643.970.963623046875
1534599643.970.963623046875
1534599643.970.963623046875
1534599643.970.962646484375
1534599643.970.962646484375
1534599643.970.960205078125
1534599643.970.960205078125
1534599643.970.961669921875
1534599643.970.961669921875
1534599643.970.962890625
1534599643.970.962890625
1534599643.970.962158203125
1534599643.970.962158203125
1534599643.970.96044921875
1534599643.970.96044921875
1534599643.980.959228515625
1534599643.980.959228515625
1534599643.980.961181640625
1534599643.980.961181640625
1534599643.980.961181640625
1534599643.980.960205078125
1534599643.980.960205078125
1534599643.980.9619140625
1534599643.980.9619140625
1534599643.980.9619140625
1534599643.980.961181640625
1534599643.980.961181640625
1534599643.980.9609375
1534599643.980.9609375
1534599643.980.960205078125
1534599643.980.960205078125
1534599643.980.9599609375
1534599643.980.9599609375
1534599643.980.963623046875
1534599643.980.963623046875
1534599643.980.96484375
1534599643.990.96484375
1534599643.990.96142578125
1534599643.990.96142578125
1534599643.990.962646484375
1534599643.990.962646484375
1534599643.990.968505859375
1534599643.990.968505859375
1534599643.990.9677734375
1534599643.990.9677734375
1534599644.00.96728515625
1534599644.00.96875
1534599644.00.96826171875
1534599644.00.96826171875
1534599644.00.96728515625
1534599644.00.96484375
1534599644.00.964599609375
1534599644.010.964599609375
1534599644.010.96875
1534599644.010.966552734375
1534599644.010.964599609375
1534599644.010.964599609375
1534599644.010.967529296875
1534599644.010.96728515625
1534599644.010.96728515625
1534599644.010.962890625
1534599644.010.962890625
1534599644.010.963134765625
1534599644.010.96728515625
1534599644.010.96728515625
1534599644.010.96728515625
1534599644.010.96728515625
1534599644.010.96630859375
1534599644.020.96630859375
1534599644.020.962158203125
1534599644.020.962158203125
1534599644.020.960693359375
1534599644.020.96484375
1534599644.020.96484375
1534599644.020.96484375
1534599644.020.96484375
1534599644.020.962890625
1534599644.020.962890625
1534599644.020.964111328125
1534599644.030.9638671875
1534599644.030.96435546875
1534599644.030.965087890625
1534599644.030.96484375
1534599644.030.964111328125
1534599644.030.966796875
1534599644.030.966796875
1534599644.030.9658203125
1534599644.030.9658203125
1534599644.030.962158203125
1534599644.030.961181640625
1534599644.030.961181640625
1534599644.030.963134765625
1534599644.030.964111328125
1534599644.040.964111328125
1534599644.040.96142578125
1534599644.040.96142578125
1534599644.040.960205078125
1534599644.040.964111328125
1534599644.040.964111328125
1534599644.040.966552734375
1534599644.040.966552734375
1534599644.040.96435546875
1534599644.040.965576171875
1534599644.040.965576171875
1534599644.040.9638671875
1534599644.040.9638671875
1534599644.040.965087890625
1534599644.050.96826171875
1534599644.050.96826171875
1534599644.050.968017578125
1534599644.050.968017578125
1534599644.050.96826171875
1534599644.050.96826171875
1534599644.050.967041015625
1534599644.050.967041015625
1534599644.050.96728515625
1534599644.050.96728515625
1534599644.050.96484375
1534599644.050.96484375
1534599644.050.962646484375
1534599644.050.962646484375
1534599644.050.964599609375
1534599644.050.964599609375
1534599644.050.965087890625
1534599644.050.965087890625
1534599644.050.9658203125
1534599644.050.9658203125
1534599644.060.963623046875
1534599644.060.963623046875
1534599644.060.9638671875
1534599644.060.9638671875
1534599644.060.96533203125
1534599644.060.96533203125
1534599644.060.96484375
1534599644.060.96484375
1534599644.060.966796875
1534599644.060.966796875
1534599644.060.96728515625
1534599644.060.96728515625
1534599644.060.962890625
1534599644.060.962890625
1534599644.060.959228515625
1534599644.060.959228515625
1534599644.060.962158203125
1534599644.060.962158203125
1534599644.060.964599609375
1534599644.070.967529296875
1534599644.070.967529296875
1534599644.070.967041015625
1534599644.070.967041015625
1534599644.070.96435546875
1534599644.070.96435546875
1534599644.070.965576171875
1534599644.070.965576171875
1534599644.070.9619140625
1534599644.070.9619140625
1534599644.070.9609375
1534599644.070.9609375
1534599644.070.962890625
1534599644.070.962890625
1534599644.070.962890625
1534599644.070.962890625
1534599644.070.962890625
1534599644.070.965087890625
1534599644.070.965087890625
1534599644.070.96337890625
1534599644.080.961181640625
1534599644.080.961181640625
1534599644.080.9619140625
1534599644.080.9619140625
1534599644.080.9619140625
1534599644.080.96337890625
1534599644.080.96337890625
1534599644.080.96435546875
1534599644.080.96435546875
1534599644.080.96484375
1534599644.080.96484375
1534599644.080.965576171875
1534599644.080.965576171875
1534599644.080.962158203125
1534599644.080.962158203125
1534599644.080.96240234375
1534599644.080.96240234375
1534599644.080.968017578125
1534599644.080.968017578125
1534599644.080.96728515625
1534599644.080.96728515625
1534599644.090.9619140625
1534599644.090.9619140625
1534599644.090.961181640625
1534599644.090.961181640625
1534599644.090.964599609375
1534599644.090.964599609375
1534599644.090.965576171875
1534599644.090.965576171875
1534599644.090.96484375
1534599644.090.96484375
1534599644.090.96337890625
1534599644.090.96337890625
1534599644.090.962890625
1534599644.090.962890625
1534599644.090.96435546875
1534599644.090.96435546875
1534599644.090.964111328125
1534599644.090.964111328125
1534599644.090.962890625
1534599644.090.962890625
1534599644.10.964111328125
1534599644.10.964111328125
1534599644.10.96337890625
1534599644.10.96337890625
1534599644.10.962646484375
1534599644.10.962646484375
1534599644.10.964599609375
1534599644.10.964599609375
1534599644.10.968017578125
1534599644.10.968017578125
1534599644.10.97119140625
1534599644.10.97119140625
1534599644.10.9716796875
1534599644.10.9716796875
1534599644.10.97021484375
1534599644.10.97021484375
1534599644.10.97216796875
1534599644.10.97216796875
1534599644.10.969970703125
1534599644.10.969970703125
1534599644.110.96435546875
1534599644.110.96435546875
1534599644.110.96630859375
1534599644.110.96630859375
1534599644.110.96630859375
1534599644.110.96728515625
1534599644.110.96728515625
1534599644.110.96533203125
1534599644.110.96533203125
1534599644.110.9638671875
1534599644.110.9638671875
1534599644.110.965087890625
1534599644.110.965087890625
1534599644.110.966064453125
1534599644.110.966064453125
1534599644.110.965576171875
1534599644.110.965576171875
1534599644.110.96630859375
1534599644.110.96630859375
1534599644.110.965087890625
1534599644.110.965087890625
1534599644.120.964599609375
1534599644.120.964599609375
1534599644.120.967529296875
1534599644.120.967529296875
1534599644.120.968017578125
1534599644.120.968017578125
1534599644.120.96484375
1534599644.120.96484375
1534599644.120.963134765625
1534599644.120.963134765625
1534599644.120.9658203125
1534599644.120.9658203125
1534599644.120.965576171875
1534599644.120.965576171875
1534599644.120.964599609375
1534599644.120.964599609375
1534599644.120.96484375
1534599644.120.96484375
1534599644.120.96337890625
1534599644.120.96337890625
1534599644.120.964111328125
1534599644.130.964111328125
1534599644.130.965087890625
1534599644.130.965087890625
1534599644.130.965087890625
1534599644.130.96240234375
1534599644.130.96240234375
1534599644.130.963134765625
1534599644.130.963134765625
1534599644.130.96630859375
1534599644.130.96630859375
1534599644.130.963623046875
1534599644.130.963623046875
1534599644.130.960693359375
1534599644.130.960693359375
1534599644.130.9609375
1534599644.130.9609375
1534599644.130.963623046875
1534599644.130.963623046875
1534599644.130.96435546875
1534599644.130.96435546875
1534599644.130.9609375
1534599644.140.9609375
1534599644.140.960693359375
1534599644.140.960693359375
1534599644.140.96435546875
1534599644.140.96435546875
1534599644.140.9677734375
1534599644.140.9677734375
1534599644.140.967041015625
1534599644.140.967041015625
1534599644.140.962646484375
1534599644.140.962646484375
1534599644.140.962646484375
1534599644.140.960205078125
1534599644.140.960205078125
1534599644.140.961181640625
1534599644.140.961181640625
1534599644.140.9638671875
1534599644.140.9638671875
1534599644.140.966064453125
1534599644.140.966064453125
1534599644.150.964599609375
1534599644.150.964599609375
1534599644.150.96240234375
1534599644.150.96240234375
1534599644.150.9638671875
1534599644.150.9638671875
1534599644.150.962646484375
1534599644.150.962646484375
1534599644.160.96630859375
1534599644.160.96728515625
1534599644.160.965087890625
1534599644.160.965087890625
1534599644.160.96484375
1534599644.160.96484375
1534599644.160.965087890625
1534599644.160.96533203125
1534599644.160.96533203125
1534599644.160.96533203125
1534599644.160.965576171875
1534599644.160.965576171875
1534599644.160.965576171875
1534599644.170.96826171875
1534599644.170.96826171875
1534599644.170.967041015625
1534599644.170.96630859375
1534599644.170.96630859375
1534599644.170.9638671875
1534599644.170.9638671875
1534599644.170.966552734375
1534599644.170.97119140625
1534599644.170.97119140625
1534599644.170.96923828125
1534599644.170.9677734375
1534599644.180.9677734375
1534599644.180.971435546875
1534599644.180.971435546875
1534599644.180.969970703125
1534599644.180.96630859375
1534599644.180.9658203125
1534599644.180.9658203125
1534599644.180.967041015625
1534599644.180.966552734375
1534599644.190.966552734375
1534599644.190.96826171875
1534599644.190.96630859375
1534599644.190.966552734375
1534599644.190.966552734375
1534599644.190.970703125
1534599644.190.96826171875
1534599644.190.967041015625
1534599644.190.967041015625
1534599644.190.96728515625
1534599644.190.966552734375
1534599644.190.967041015625
1534599644.20.967041015625
1534599644.20.9619140625
1534599644.20.96337890625
1534599644.20.966064453125
1534599644.20.966064453125
1534599644.20.965087890625
1534599644.20.9599609375
1534599644.20.9599609375
1534599644.20.959716796875
1534599644.20.959716796875
1534599644.20.964111328125
1534599644.20.964111328125
1534599644.20.96435546875
1534599644.210.96435546875
1534599644.210.961181640625
1534599644.210.961181640625
1534599644.210.96240234375
1534599644.210.96240234375
1534599644.210.964111328125
1534599644.210.964111328125
1534599644.210.964599609375
1534599644.210.964599609375
1534599644.210.965576171875
1534599644.210.965576171875
1534599644.210.96337890625
1534599644.210.96337890625
1534599644.210.963134765625
1534599644.210.963134765625
1534599644.210.9658203125
1534599644.210.9658203125
1534599644.210.9638671875
1534599644.210.9638671875
1534599644.210.962890625
1534599644.210.962890625
1534599644.220.96337890625
1534599644.220.96337890625
1534599644.220.963623046875
1534599644.220.963623046875
1534599644.220.965087890625
1534599644.220.967529296875
1534599644.220.9697265625
1534599644.220.968994140625
1534599644.220.966552734375
1534599644.220.966552734375
1534599644.220.962158203125
1534599644.220.962158203125
1534599644.220.961181640625
1534599644.220.961181640625
1534599644.220.9619140625
1534599644.220.9619140625
1534599644.230.9619140625
1534599644.230.962890625
1534599644.230.962890625
1534599644.230.96728515625
1534599644.230.96728515625
1534599644.230.9658203125
1534599644.230.9658203125
1534599644.230.965576171875
1534599644.230.965576171875
1534599644.230.967041015625
1534599644.230.967041015625
1534599644.230.96630859375
1534599644.230.96630859375
1534599644.230.965576171875
1534599644.230.965576171875
1534599644.230.96435546875
1534599644.230.96435546875
1534599644.230.964111328125
1534599644.230.964111328125
1534599644.230.96484375
1534599644.230.96484375
1534599644.240.9677734375
1534599644.240.9677734375
1534599644.240.967529296875
1534599644.240.967529296875
1534599644.240.966064453125
1534599644.240.966064453125
1534599644.240.96533203125
1534599644.240.96533203125
1534599644.240.9658203125
1534599644.240.9658203125
1534599644.240.9658203125
1534599644.240.9658203125
1534599644.240.9658203125
1534599644.240.96484375
1534599644.240.96484375
1534599644.240.9677734375
1534599644.240.9677734375
1534599644.240.96923828125
1534599644.240.96923828125
1534599644.240.967529296875
1534599644.240.967529296875
1534599644.250.967041015625
1534599644.250.967041015625
1534599644.250.96728515625
1534599644.250.96728515625
1534599644.250.96533203125
1534599644.250.96533203125
1534599644.250.96484375
1534599644.250.96484375
1534599644.250.964599609375
1534599644.250.964599609375
1534599644.250.960693359375
1534599644.250.960693359375
1534599644.250.95947265625
1534599644.250.95947265625
1534599644.250.95947265625
1534599644.250.96337890625
1534599644.250.96337890625
1534599644.250.96484375
1534599644.250.96484375
1534599644.250.965087890625
1534599644.250.965087890625
1534599644.260.967041015625
1534599644.260.967041015625
1534599644.260.96533203125
1534599644.260.96533203125
1534599644.260.9638671875
1534599644.260.9638671875
1534599644.260.965087890625
1534599644.260.965087890625
1534599644.260.96728515625
1534599644.260.96728515625
1534599644.260.966552734375
1534599644.260.966552734375
1534599644.260.965087890625
1534599644.260.965087890625
1534599644.260.96533203125
1534599644.260.96533203125
1534599644.260.965576171875
1534599644.260.965576171875
1534599644.260.965576171875
1534599644.260.965576171875
1534599644.270.965576171875
1534599644.270.966552734375
1534599644.270.966552734375
1534599644.270.965576171875
1534599644.270.965576171875
1534599644.270.96435546875
1534599644.270.96435546875
1534599644.270.963623046875
1534599644.270.963623046875
1534599644.270.96533203125
1534599644.270.967529296875
1534599644.270.967529296875
1534599644.270.9677734375
1534599644.270.9677734375
1534599644.270.96728515625
1534599644.270.96728515625
1534599644.270.9658203125
1534599644.270.9658203125
1534599644.270.9677734375
1534599644.270.9677734375
1534599644.280.9697265625
1534599644.280.9697265625
1534599644.280.96630859375
1534599644.280.96630859375
1534599644.280.96435546875
1534599644.280.96435546875
1534599644.280.96630859375
1534599644.280.96630859375
1534599644.280.96533203125
1534599644.280.96533203125
1534599644.280.963134765625
1534599644.280.963134765625
1534599644.280.9638671875
1534599644.280.9638671875
1534599644.280.964599609375
1534599644.280.964599609375
1534599644.280.964599609375
1534599644.280.9638671875
1534599644.280.9638671875
1534599644.280.968017578125
1534599644.280.968017578125
1534599644.290.96923828125
1534599644.290.96923828125
1534599644.290.965576171875
1534599644.290.965576171875
1534599644.290.966064453125
1534599644.290.966064453125
1534599644.290.966796875
1534599644.290.966796875
1534599644.290.966064453125
1534599644.290.966064453125
1534599644.290.9658203125
1534599644.290.9658203125
1534599644.290.9658203125
1534599644.290.9658203125
1534599644.290.965087890625
1534599644.290.965087890625
1534599644.290.96484375
1534599644.290.96484375
1534599644.290.9638671875
1534599644.290.9638671875
1534599644.290.960205078125
1534599644.30.960205078125
1534599644.30.963134765625
1534599644.310.967041015625
1534599644.310.9638671875
1534599644.310.96240234375
1534599644.310.96240234375
1534599644.310.965576171875
1534599644.310.965576171875
1534599644.310.964599609375
1534599644.310.96142578125
1534599644.310.96142578125
1534599644.310.96337890625
1534599644.310.968017578125
1534599644.310.968017578125
1534599644.310.96728515625
1534599644.310.96728515625
1534599644.310.965576171875
1534599644.310.965576171875
1534599644.320.965576171875
1534599644.320.96533203125
1534599644.320.96533203125
1534599644.320.967041015625
1534599644.320.9638671875
1534599644.320.9619140625
1534599644.320.9619140625
1534599644.320.963134765625
1534599644.320.963134765625
1534599644.330.966796875
1534599644.330.968994140625
1534599644.330.968994140625
1534599644.330.969970703125
1534599644.330.969970703125
1534599644.330.9677734375
1534599644.330.9677734375
1534599644.330.96533203125
1534599644.330.96630859375
1534599644.330.96630859375
1534599644.330.967041015625
1534599644.330.9697265625
1534599644.330.9697265625
1534599644.330.969970703125
1534599644.330.969970703125
1534599644.330.9658203125
1534599644.330.9677734375
1534599644.340.9677734375
1534599644.340.968017578125
1534599644.340.96875
1534599644.340.96875
1534599644.340.96728515625
1534599644.340.964111328125
1534599644.340.96435546875
1534599644.340.96435546875
1534599644.340.965576171875
1534599644.340.965576171875
1534599644.340.965576171875
1534599644.340.965576171875
1534599644.350.962646484375
1534599644.350.962890625
1534599644.350.96728515625
1534599644.350.96484375
1534599644.350.96484375
1534599644.350.964111328125
1534599644.350.964111328125
1534599644.350.963134765625
1534599644.350.96337890625
1534599644.350.96337890625
1534599644.350.96337890625
1534599644.350.96484375
1534599644.360.96484375
1534599644.360.963623046875
1534599644.360.963623046875
1534599644.360.961181640625
1534599644.360.962646484375
1534599644.360.962646484375
1534599644.360.962646484375
1534599644.360.965087890625
1534599644.360.965087890625
1534599644.360.96484375
1534599644.360.96484375
1534599644.360.96435546875
1534599644.360.96435546875
1534599644.360.96728515625
1534599644.360.96728515625
1534599644.360.968505859375
1534599644.360.968505859375
1534599644.360.968017578125
1534599644.360.968017578125
1534599644.360.968505859375
1534599644.370.968505859375
1534599644.370.967041015625
1534599644.370.967041015625
1534599644.370.96630859375
1534599644.370.96630859375
1534599644.370.96533203125
1534599644.370.96533203125
1534599644.370.964111328125
1534599644.370.964111328125
1534599644.370.96435546875
1534599644.370.96435546875
1534599644.370.9638671875
1534599644.370.9638671875
1534599644.370.96435546875
1534599644.370.96435546875
1534599644.370.966552734375
1534599644.370.966552734375
1534599644.370.967529296875
1534599644.370.967529296875
1534599644.370.9658203125
1534599644.380.962890625
1534599644.380.962890625
1534599644.380.96337890625
1534599644.380.96337890625
1534599644.380.965087890625
1534599644.380.965087890625
1534599644.380.962646484375
1534599644.380.962646484375
1534599644.380.962646484375
1534599644.380.961181640625
1534599644.380.961181640625
1534599644.380.965576171875
1534599644.380.965576171875
1534599644.380.965576171875
1534599644.380.965576171875
1534599644.380.963134765625
1534599644.380.963134765625
1534599644.380.96533203125
1534599644.380.96533203125
1534599644.380.96533203125
1534599644.390.96533203125
1534599644.390.96484375
1534599644.390.96484375
1534599644.390.966552734375
1534599644.390.966552734375
1534599644.390.9638671875
1534599644.390.9638671875
1534599644.390.9638671875
1534599644.390.9638671875
1534599644.390.965576171875
1534599644.390.965576171875
1534599644.390.964111328125
1534599644.390.964111328125
1534599644.390.96240234375
1534599644.390.96240234375
1534599644.390.9609375
1534599644.390.9609375
1534599644.390.965087890625
1534599644.390.965087890625
1534599644.390.966552734375
1534599644.390.966552734375
1534599644.40.963134765625
1534599644.40.963134765625
1534599644.40.963134765625
1534599644.40.963134765625
1534599644.40.963134765625
1534599644.40.965576171875
1534599644.40.965576171875
1534599644.40.965087890625
1534599644.40.965087890625
1534599644.40.96240234375
1534599644.40.96240234375
1534599644.40.962890625
1534599644.40.962890625
1534599644.40.966552734375
1534599644.40.966552734375
1534599644.40.964599609375
1534599644.40.964599609375
1534599644.40.963134765625
1534599644.40.963134765625
1534599644.40.96630859375
1534599644.40.96630859375
1534599644.410.96484375
1534599644.410.96484375
1534599644.410.966064453125
1534599644.410.966064453125
1534599644.410.96728515625
1534599644.410.96728515625
1534599644.410.966064453125
1534599644.410.966064453125
1534599644.410.96728515625
1534599644.410.96728515625
1534599644.410.96728515625
1534599644.410.96875
1534599644.410.96875
1534599644.410.969482421875
1534599644.410.969482421875
1534599644.410.9677734375
1534599644.410.9677734375
1534599644.410.96533203125
1534599644.410.96533203125
1534599644.410.965576171875
1534599644.410.965576171875
1534599644.420.968017578125
1534599644.420.968017578125
1534599644.420.96533203125
1534599644.420.96533203125
1534599644.420.962646484375
1534599644.420.962646484375
1534599644.420.96435546875
1534599644.420.96435546875
1534599644.420.96484375
1534599644.420.96484375
1534599644.420.963134765625
1534599644.420.963134765625
1534599644.420.962890625
1534599644.420.962890625
1534599644.420.964599609375
1534599644.420.964599609375
1534599644.420.964599609375
1534599644.420.966064453125
1534599644.420.966064453125
1534599644.420.968017578125
1534599644.430.968017578125
1534599644.430.967041015625
1534599644.430.967041015625
1534599644.430.965576171875
1534599644.430.965576171875
1534599644.430.9658203125
1534599644.430.9658203125
1534599644.430.968017578125
1534599644.430.968017578125
1534599644.430.968505859375
1534599644.430.968505859375
1534599644.430.96484375
1534599644.430.96484375
1534599644.430.9609375
1534599644.430.9609375
1534599644.430.962890625
1534599644.430.962890625
1534599644.430.968994140625
1534599644.430.968994140625
1534599644.430.968505859375
1534599644.430.968505859375
1534599644.440.96630859375
1534599644.440.96630859375
1534599644.440.966796875
1534599644.440.966796875
1534599644.440.966796875
1534599644.440.966064453125
1534599644.440.966064453125
1534599644.440.966552734375
1534599644.440.966552734375
1534599644.440.968017578125
1534599644.440.968017578125
1534599644.440.966064453125
1534599644.440.966064453125
1534599644.440.964599609375
1534599644.440.964599609375
1534599644.440.96923828125
1534599644.440.96923828125
1534599644.440.968994140625
1534599644.440.968994140625
1534599644.440.96435546875
1534599644.450.96435546875
1534599644.450.9638671875
1534599644.450.961669921875
1534599644.450.961669921875
1534599644.450.961669921875
1534599644.450.96435546875
1534599644.450.96435546875
1534599644.450.96826171875
1534599644.450.96826171875
1534599644.450.96484375
1534599644.450.96484375
1534599644.450.96435546875
1534599644.450.96435546875
1534599644.450.963134765625
1534599644.450.963134765625
1534599644.450.962890625
1534599644.450.962890625
1534599644.450.96533203125
1534599644.450.96533203125
1534599644.450.962646484375
1534599644.450.962646484375
1534599644.460.9619140625
1534599644.460.9619140625
1534599644.470.963134765625
1534599644.470.966064453125
1534599644.470.962646484375
1534599644.470.962646484375
1534599644.470.962890625
1534599644.470.962890625
1534599644.470.964111328125
1534599644.470.963623046875
1534599644.470.963623046875
1534599644.470.962890625
1534599644.470.962890625
1534599644.470.964599609375
1534599644.470.965087890625
1534599644.470.965087890625
1534599644.470.964111328125
1534599644.480.962158203125
1534599644.480.962158203125
1534599644.480.96337890625
1534599644.480.966552734375
1534599644.480.966552734375
1534599644.480.96728515625
1534599644.480.963623046875
1534599644.480.963623046875
1534599644.480.965087890625
1534599644.480.964111328125
1534599644.480.964111328125
1534599644.490.96142578125
1534599644.490.96142578125
1534599644.490.962158203125
1534599644.490.962158203125
1534599644.490.963623046875
1534599644.490.9658203125
1534599644.490.9658203125
1534599644.490.9677734375
1534599644.490.9677734375
1534599644.490.966796875
1534599644.490.96435546875
1534599644.490.96435546875
1534599644.490.96435546875
1534599644.490.967041015625
1534599644.490.967041015625
1534599644.490.96826171875
1534599644.490.96826171875
1534599644.50.96728515625
1534599644.50.968017578125
1534599644.50.968017578125
1534599644.50.967529296875
1534599644.50.967529296875
1534599644.50.964111328125
1534599644.50.964111328125
1534599644.50.964111328125
1534599644.50.968505859375
1534599644.50.968505859375
1534599644.510.96875
1534599644.510.966552734375
1534599644.510.966552734375
1534599644.510.963134765625
1534599644.510.963134765625
1534599644.510.963134765625
1534599644.510.96533203125
1534599644.510.964599609375
1534599644.510.964599609375
1534599644.510.962158203125
1534599644.510.965087890625
1534599644.510.965087890625
1534599644.510.96533203125
1534599644.510.9619140625
1534599644.510.9619140625
1534599644.520.962158203125
1534599644.520.96484375
1534599644.520.96484375
1534599644.520.966796875
1534599644.520.966796875
1534599644.520.968505859375
1534599644.520.968505859375
1534599644.520.96728515625
1534599644.520.96728515625
1534599644.520.96337890625
1534599644.520.96337890625
1534599644.520.96337890625
1534599644.520.96337890625
1534599644.520.962158203125
1534599644.520.962158203125
1534599644.520.96337890625
1534599644.520.96337890625
1534599644.520.967529296875
1534599644.520.967529296875
1534599644.520.967529296875
1534599644.530.96728515625
1534599644.530.96728515625
1534599644.530.965087890625
1534599644.530.965087890625
1534599644.530.9638671875
1534599644.530.9638671875
1534599644.530.965087890625
1534599644.530.965087890625
1534599644.530.966552734375
1534599644.530.966552734375
1534599644.530.9599609375
1534599644.530.963623046875
1534599644.530.963623046875
1534599644.530.9619140625
1534599644.540.96484375
1534599644.540.965576171875
1534599644.540.965576171875
1534599644.540.965087890625
1534599644.540.965087890625
1534599644.540.966552734375
1534599644.540.966552734375
1534599644.540.9658203125
1534599644.540.9658203125
1534599644.540.966064453125
1534599644.540.966064453125
1534599644.540.966064453125
1534599644.540.966796875
1534599644.540.966796875
1534599644.540.965576171875
1534599644.540.965576171875
1534599644.540.963134765625
1534599644.540.963134765625
1534599644.540.96484375
1534599644.540.96484375
1534599644.540.9677734375
1534599644.550.9677734375
1534599644.550.968505859375
1534599644.550.968505859375
1534599644.550.9697265625
1534599644.550.9697265625
1534599644.550.970458984375
1534599644.550.970703125
1534599644.550.970703125
1534599644.550.967041015625
1534599644.550.967041015625
1534599644.550.966552734375
1534599644.550.966552734375
1534599644.550.968017578125
1534599644.550.968017578125
1534599644.550.968017578125
1534599644.550.96826171875
1534599644.550.968994140625
1534599644.550.968994140625
1534599644.550.968994140625
1534599644.550.9677734375
1534599644.560.9677734375
1534599644.560.966552734375
1534599644.560.966552734375
1534599644.560.966796875
1534599644.560.966796875
1534599644.560.968017578125
1534599644.560.968017578125
1534599644.560.966796875
1534599644.560.966796875
1534599644.560.96630859375
1534599644.560.96630859375
1534599644.560.968505859375
1534599644.560.968505859375
1534599644.560.966796875
1534599644.560.966796875
1534599644.560.96630859375
1534599644.560.96630859375
1534599644.560.9677734375
1534599644.560.9677734375
1534599644.560.967529296875
1534599644.560.967529296875
1534599644.570.96826171875
1534599644.570.96826171875
1534599644.570.968994140625
1534599644.570.968994140625
1534599644.570.968994140625
1534599644.570.966796875
1534599644.570.966796875
1534599644.570.961181640625
1534599644.570.961181640625
1534599644.570.96044921875
1534599644.570.96044921875
1534599644.570.96435546875
1534599644.570.96435546875
1534599644.570.96484375
1534599644.570.96484375
1534599644.570.96533203125
1534599644.570.96533203125
1534599644.570.964111328125
1534599644.570.964111328125
1534599644.570.96337890625
1534599644.570.96337890625
1534599644.580.966064453125
1534599644.580.966064453125
1534599644.580.969482421875
1534599644.580.969482421875
1534599644.580.96875
1534599644.580.96875
1534599644.580.962646484375
1534599644.580.962646484375
1534599644.580.96240234375
1534599644.580.96240234375
1534599644.580.9677734375
1534599644.580.9677734375
1534599644.580.967041015625
1534599644.580.967041015625
1534599644.580.964111328125
1534599644.580.964111328125
1534599644.580.96337890625
1534599644.580.96337890625
1534599644.580.963134765625
1534599644.580.963134765625
1534599644.590.96484375
1534599644.590.96484375
1534599644.590.96484375
1534599644.590.96484375
1534599644.590.96484375
1534599644.590.964111328125
1534599644.590.964111328125
1534599644.590.96533203125
1534599644.590.96533203125
1534599644.590.965576171875
1534599644.590.965576171875
1534599644.590.96484375
1534599644.590.96484375
1534599644.590.96484375
1534599644.590.96484375
1534599644.590.965576171875
1534599644.590.965576171875
1534599644.590.96630859375
1534599644.590.96630859375
1534599644.590.9658203125
1534599644.590.9658203125
1534599644.60.965576171875
1534599644.60.965576171875
1534599644.60.962158203125
1534599644.60.962158203125
1534599644.60.961181640625
1534599644.60.961181640625
1534599644.60.961181640625
1534599644.60.96435546875
1534599644.60.96435546875
1534599644.60.9658203125
1534599644.60.9658203125
1534599644.60.96337890625
1534599644.60.96337890625
1534599644.60.963623046875
1534599644.60.963623046875
1534599644.60.966552734375
1534599644.60.966552734375
1534599644.60.964599609375
1534599644.60.964599609375
1534599644.60.966064453125
1534599644.60.966064453125
1534599644.610.968505859375
1534599644.610.968505859375
1534599644.610.966796875
1534599644.610.966796875
1534599644.610.964111328125
1534599644.610.964111328125
1534599644.610.9638671875
1534599644.610.9638671875
1534599644.620.96337890625
1534599644.620.9638671875
1534599644.620.9638671875
1534599644.620.96435546875
1534599644.620.96435546875
1534599644.620.96533203125
1534599644.620.967041015625
1534599644.620.967041015625
1534599644.620.966064453125
1534599644.620.96533203125
1534599644.620.96533203125
1534599644.620.96337890625
1534599644.620.96337890625
1534599644.630.96533203125
1534599644.630.967529296875
1534599644.630.96435546875
1534599644.630.964111328125
1534599644.630.964111328125
1534599644.630.964599609375
1534599644.630.959716796875
1534599644.630.959716796875
1534599644.630.958984375
1534599644.630.958984375
1534599644.630.9638671875
1534599644.630.9638671875
1534599644.640.9658203125
1534599644.640.9658203125
1534599644.640.965576171875
1534599644.640.966064453125
1534599644.640.96435546875
1534599644.640.96435546875
1534599644.640.9638671875
1534599644.640.965087890625
1534599644.640.965087890625
1534599644.650.96533203125
1534599644.650.9638671875
1534599644.650.9638671875
1534599644.650.96484375
1534599644.650.966064453125
1534599644.650.966064453125
1534599644.650.96533203125
1534599644.650.96533203125
1534599644.650.968505859375
1534599644.650.968505859375
1534599644.650.96923828125
1534599644.650.96923828125
1534599644.650.96630859375
1534599644.650.967041015625
1534599644.660.967041015625
1534599644.660.966552734375
1534599644.660.964599609375
1534599644.660.964599609375
1534599644.660.964111328125
1534599644.660.964111328125
1534599644.660.966552734375
1534599644.660.97119140625
1534599644.660.97119140625
1534599644.660.97021484375
1534599644.660.964599609375
1534599644.660.964599609375
1534599644.670.963134765625
1534599644.670.963134765625
1534599644.670.962890625
1534599644.670.962890625
1534599644.670.96337890625
1534599644.670.96337890625
1534599644.670.964111328125
1534599644.670.964111328125
1534599644.670.9638671875
1534599644.670.9638671875
1534599644.670.963623046875
1534599644.670.963623046875
1534599644.670.966796875
1534599644.670.966796875
1534599644.670.969482421875
1534599644.670.969482421875
1534599644.670.96826171875
1534599644.670.96826171875
1534599644.670.9658203125
1534599644.670.9658203125
1534599644.670.96435546875
1534599644.680.96435546875
1534599644.680.963623046875
1534599644.680.963623046875
1534599644.680.962890625
1534599644.680.96484375
1534599644.680.96484375
1534599644.680.9658203125
1534599644.680.9658203125
1534599644.680.96728515625
1534599644.680.96728515625
1534599644.680.96728515625
1534599644.680.966796875
1534599644.680.966796875
1534599644.680.965087890625
1534599644.680.965087890625
1534599644.680.9638671875
1534599644.680.9638671875
1534599644.680.964111328125
1534599644.680.964111328125
1534599644.690.96435546875
1534599644.690.96435546875
1534599644.690.96484375
1534599644.690.96484375
1534599644.690.965576171875
1534599644.690.965576171875
1534599644.690.966796875
1534599644.690.966796875
1534599644.690.96923828125
1534599644.690.96923828125
1534599644.690.966796875
1534599644.690.966796875
1534599644.690.965087890625
1534599644.690.965087890625
1534599644.690.96875
1534599644.690.96875
1534599644.690.96923828125
1534599644.690.96923828125
1534599644.690.966064453125
1534599644.690.966064453125
1534599644.690.966552734375
1534599644.70.966552734375
1534599644.70.968017578125
1534599644.70.968017578125
1534599644.70.96728515625
1534599644.70.96728515625
1534599644.70.966064453125
1534599644.70.966064453125
1534599644.70.966064453125
1534599644.70.966064453125
1534599644.70.966064453125
1534599644.70.962890625
1534599644.70.962890625
1534599644.70.959716796875
1534599644.70.959716796875
1534599644.70.96142578125
1534599644.70.96142578125
1534599644.70.96533203125
1534599644.70.96533203125
1534599644.70.96630859375
1534599644.70.96630859375
1534599644.70.964111328125
1534599644.710.964111328125
1534599644.710.964111328125
1534599644.710.964111328125
1534599644.710.963623046875
1534599644.710.963623046875
1534599644.710.963134765625
1534599644.710.963134765625
1534599644.710.963134765625
1534599644.710.966796875
1534599644.710.966796875
1534599644.710.966552734375
1534599644.710.966552734375
1534599644.710.963134765625
1534599644.710.963134765625
1534599644.710.96240234375
1534599644.710.96240234375
1534599644.710.9609375
1534599644.710.9609375
1534599644.710.962646484375
1534599644.710.962646484375
1534599644.710.963623046875
1534599644.720.963623046875
1534599644.720.963623046875
1534599644.720.963623046875
1534599644.720.965576171875
1534599644.720.965576171875
1534599644.720.965576171875
1534599644.720.965576171875
1534599644.720.96533203125
1534599644.720.96533203125
1534599644.720.96435546875
1534599644.720.96435546875
1534599644.720.96435546875
1534599644.720.96484375
1534599644.720.96484375
1534599644.720.96435546875
1534599644.720.96435546875
1534599644.720.9609375
1534599644.720.962646484375
1534599644.720.962646484375
1534599644.720.966796875
1534599644.730.966796875
1534599644.730.966796875
1534599644.730.966796875
1534599644.730.963623046875
1534599644.730.963623046875
1534599644.730.966064453125
1534599644.730.966064453125
1534599644.730.966796875
1534599644.730.966796875
1534599644.730.966064453125
1534599644.730.966064453125
1534599644.730.965087890625
1534599644.730.965087890625
1534599644.730.962646484375
1534599644.730.962646484375
1534599644.730.964599609375
1534599644.730.964599609375
1534599644.730.96630859375
1534599644.730.96630859375
1534599644.730.96630859375
1534599644.730.968505859375
1534599644.740.968505859375
1534599644.740.96826171875
1534599644.740.96826171875
1534599644.740.965576171875
1534599644.740.965576171875
1534599644.740.964111328125
1534599644.740.964111328125
1534599644.740.962646484375
1534599644.740.962646484375
1534599644.740.96142578125
1534599644.740.96142578125
1534599644.740.963623046875
1534599644.740.963623046875
1534599644.740.965576171875
1534599644.740.965576171875
1534599644.740.9638671875
1534599644.740.9638671875
1534599644.740.963134765625
1534599644.740.963134765625
1534599644.740.965087890625
1534599644.740.965087890625
1534599644.750.96484375
1534599644.750.96484375
1534599644.750.96484375
1534599644.750.96484375
1534599644.750.967529296875
1534599644.750.967529296875
1534599644.750.96630859375
1534599644.750.96630859375
1534599644.750.964599609375
1534599644.750.964599609375
1534599644.750.96337890625
1534599644.750.96337890625
1534599644.750.961669921875
1534599644.750.961669921875
1534599644.750.961669921875
1534599644.750.963134765625
1534599644.750.963134765625
1534599644.750.965576171875
1534599644.750.965576171875
1534599644.750.967529296875
1534599644.760.967529296875
1534599644.760.96533203125
1534599644.760.96533203125
1534599644.760.96240234375
1534599644.760.96240234375
1534599644.760.964111328125
1534599644.760.964111328125
1534599644.760.96826171875
1534599644.760.96826171875
1534599644.760.967041015625
1534599644.760.967041015625
1534599644.760.967041015625
1534599644.760.967041015625
1534599644.760.96728515625
1534599644.760.96728515625
1534599644.760.966796875
1534599644.760.966796875
1534599644.760.96826171875
1534599644.760.96826171875
1534599644.760.968017578125
1534599644.760.968017578125
1534599644.770.968017578125
1534599644.770.97119140625
1534599644.770.970947265625
1534599644.770.970947265625
1534599644.770.970947265625
1534599644.770.967041015625
1534599644.780.966796875
1534599644.780.96484375
1534599644.780.96630859375
1534599644.780.967529296875
1534599644.780.967529296875
1534599644.780.968505859375
1534599644.780.968505859375
1534599644.780.965087890625
1534599644.780.960693359375
1534599644.780.960693359375
1534599644.780.96484375
1534599644.790.96923828125
1534599644.790.96826171875
1534599644.790.96826171875
1534599644.790.968505859375
1534599644.790.967529296875
1534599644.790.967529296875
1534599644.790.962890625
1534599644.790.95947265625
1534599644.790.95947265625
1534599644.790.9609375
1534599644.790.9609375
1534599644.790.96533203125
1534599644.790.967041015625
1534599644.790.967041015625
1534599644.790.967529296875
1534599644.790.967529296875
1534599644.80.96435546875
1534599644.80.967529296875
1534599644.80.967529296875
1534599644.80.9697265625
1534599644.80.96923828125
1534599644.810.96484375
1534599644.810.96484375
1534599644.810.96533203125
1534599644.810.968017578125
1534599644.810.968017578125
1534599644.810.962890625
1534599644.810.962646484375
1534599644.810.962646484375
1534599644.810.966064453125
1534599644.810.966064453125
1534599644.810.966552734375
1534599644.810.966552734375
1534599644.810.968017578125
1534599644.810.965087890625
1534599644.810.965087890625
1534599644.810.9638671875
1534599644.810.9638671875
1534599644.820.966552734375
1534599644.820.966552734375
1534599644.820.96630859375
1534599644.820.96630859375
1534599644.820.9638671875
1534599644.820.96533203125
1534599644.820.96533203125
1534599644.820.965087890625
1534599644.820.9638671875
1534599644.820.9638671875
1534599644.820.96337890625
1534599644.820.965087890625
1534599644.820.965087890625
1534599644.830.965576171875
1534599644.830.965576171875
1534599644.830.9658203125
1534599644.830.9658203125
1534599644.830.9677734375
1534599644.830.9677734375
1534599644.830.9677734375
1534599644.830.9677734375
1534599644.830.96875
1534599644.830.96875
1534599644.830.9677734375
1534599644.830.9677734375
1534599644.830.962890625
1534599644.830.962890625
1534599644.830.962158203125
1534599644.830.962158203125
1534599644.830.96337890625
1534599644.830.96337890625
1534599644.830.962646484375
1534599644.830.962646484375
1534599644.830.96240234375
1534599644.840.96240234375
1534599644.840.964111328125
1534599644.840.964111328125
1534599644.840.964111328125
1534599644.840.96728515625
1534599644.840.96533203125
1534599644.840.96533203125
1534599644.840.961669921875
1534599644.840.961669921875
1534599644.840.96142578125
1534599644.840.96142578125
1534599644.840.96142578125
1534599644.840.962890625
1534599644.840.96240234375
1534599644.840.96240234375
1534599644.840.959716796875
1534599644.840.959716796875
1534599644.840.959716796875
1534599644.840.961669921875
1534599644.840.961669921875
