CSV format: Accelerometer x value, acclerometer y value, accelerometer z value, gyroscope x value, gyroscope y value, gyroscope z value
Sample frequency: 100Hz
1534604409.430.967529296875,-0.309326171875,0.147705078125
1534604409.430.962646484375,-0.306884765625,0.146728515625
1534604409.430.96484375,-0.307373046875,0.140380859375
1534604409.430.960693359375,-0.308349609375,0.138671875
1534604409.430.96533203125,-0.30810546875,0.14697265625
1534604409.440.966552734375,-0.306884765625,0.146484375
1534604409.440.967041015625,-0.306884765625,0.143310546875
1534604409.440.966064453125,-0.305419921875,0.141845703125
1534604409.440.966064453125,-0.30517578125,0.140625
1534604409.440.96630859375,-0.308837890625,0.144287109375
1534604409.450.965576171875,-0.30322265625,0.138916015625
1534604409.450.969482421875,-0.3037109375,0.138916015625
1534604409.450.96533203125,-0.305908203125,0.1435546875
1534604409.450.968505859375,-0.304931640625,0.140380859375
1534604409.450.97265625,-0.299560546875,0.13330078125
1534604409.460.967041015625,-0.300048828125,0.139404296875
1534604409.460.96875,-0.2978515625,0.1357421875
1534604409.460.966552734375,-0.29833984375,0.140380859375
1534604409.460.967529296875,-0.297607421875,0.142333984375
1534604409.460.966552734375,-0.30029296875,0.13134765625
1534604409.470.969482421875,-0.2998046875,0.135009765625
1534604409.470.970458984375,-0.297607421875,0.140380859375
1534604409.470.97314453125,-0.2939453125,0.144775390625
1534604409.470.971435546875,-0.29443359375,0.136474609375
1534604409.470.96826171875,-0.295654296875,0.138916015625
1534604409.480.969970703125,-0.299072265625,0.1357421875
1534604409.480.971923828125,-0.298583984375,0.138427734375
1534604409.480.96923828125,-0.2958984375,0.135009765625
1534604409.480.971923828125,-0.294677734375,0.135498046875
1534604409.480.964599609375,-0.289794921875,0.13671875
1534604409.480.96533203125,-0.2880859375,0.13720703125
1534604409.480.967041015625,-0.290283203125,0.133544921875
1534604409.490.969482421875,-0.29345703125,0.136962890625
1534604409.490.968994140625,-0.295166015625,0.13720703125
1534604409.490.969482421875,-0.295654296875,0.1357421875
1534604409.490.971435546875,-0.291015625,0.136962890625
1534604409.490.974365234375,-0.292724609375,0.13916015625
1534604409.490.974609375,-0.294189453125,0.143798828125
1534604409.490.968505859375,-0.294189453125,0.140625
1534604409.490.967041015625,-0.29443359375,0.135986328125
1534604409.50.97265625,-0.2880859375,0.13720703125
1534604409.50.97021484375,-0.290771484375,0.13720703125
1534604409.50.96923828125,-0.29541015625,0.138427734375
1534604409.50.97119140625,-0.294921875,0.13525390625
1534604409.510.971435546875,-0.288330078125,0.128662109375
1534604409.510.9716796875,-0.291015625,0.1298828125
1534604409.510.97021484375,-0.295166015625,0.141357421875
1534604409.510.97021484375,-0.294677734375,0.136474609375
1534604409.510.97216796875,-0.294189453125,0.139892578125
1534604409.520.96728515625,-0.293701171875,0.14013671875
1534604409.520.967529296875,-0.293701171875,0.139404296875
1534604409.520.9716796875,-0.294189453125,0.132568359375
1534604409.520.97265625,-0.295166015625,0.13720703125
1534604409.530.966796875,-0.2958984375,0.132568359375
1534604409.530.967529296875,-0.29638671875,0.135498046875
1534604409.530.96630859375,-0.297607421875,0.130126953125
1534604409.540.96728515625,-0.29638671875,0.13720703125
1534604409.540.966064453125,-0.29931640625,0.139892578125
1534604409.540.96533203125,-0.29248046875,0.134521484375
1534604409.540.97021484375,-0.292724609375,0.134033203125
1534604409.540.96435546875,-0.294677734375,0.138427734375
1534604409.540.96533203125,-0.296630859375,0.13916015625
1534604409.550.968505859375,-0.29833984375,0.133544921875
1534604409.550.966552734375,-0.29931640625,0.135009765625
1534604409.550.967041015625,-0.29833984375,0.134521484375
1534604409.550.966064453125,-0.29833984375,0.137451171875
1534604409.550.97119140625,-0.300048828125,0.148193359375
1534604409.550.97314453125,-0.30029296875,0.140869140625
1534604409.550.96826171875,-0.2978515625,0.137939453125
1534604409.560.970458984375,-0.29931640625,0.140625
1534604409.560.97021484375,-0.300537109375,0.136474609375
1534604409.560.967529296875,-0.293701171875,0.134033203125
1534604409.560.966064453125,-0.301513671875,0.137939453125
1534604409.560.966064453125,-0.298095703125,0.142578125
1534604409.560.96728515625,-0.30078125,0.1396484375
1534604409.560.9697265625,-0.301025390625,0.137939453125
1534604409.570.96875,-0.30517578125,0.136474609375
1534604409.570.9697265625,-0.302001953125,0.136474609375
1534604409.570.966552734375,-0.299072265625,0.14013671875
1534604409.570.970458984375,-0.301513671875,0.13720703125
1534604409.570.968505859375,-0.30078125,0.140380859375
1534604409.570.966064453125,-0.30029296875,0.135009765625
1534604409.580.965087890625,-0.30078125,0.139404296875
1534604409.580.97119140625,-0.3056640625,0.1435546875
1534604409.580.967041015625,-0.302734375,0.140625
1534604409.580.964599609375,-0.3037109375,0.142822265625
1534604409.580.96630859375,-0.304931640625,0.1416015625
1534604409.580.968505859375,-0.30712890625,0.14453125
1534604409.580.968017578125,-0.305908203125,0.1435546875
1534604409.590.9638671875,-0.30322265625,0.139892578125
1534604409.590.966796875,-0.30419921875,0.14111328125
1534604409.590.969482421875,-0.3076171875,0.139404296875
1534604409.590.970703125,-0.299560546875,0.13623046875
1534604409.590.96826171875,-0.305419921875,0.13916015625
1534604409.590.968505859375,-0.305908203125,0.134765625
1534604409.60.96533203125,-0.306640625,0.13427734375
1534604409.60.96484375,-0.3095703125,0.14111328125
1534604409.60.970458984375,-0.3046875,0.143310546875
1534604409.60.965087890625,-0.3076171875,0.13671875
1534604409.60.966064453125,-0.30810546875,0.135986328125
1534604409.610.963623046875,-0.307861328125,0.138671875
1534604409.610.967041015625,-0.303466796875,0.14599609375
1534604409.610.964111328125,-0.303955078125,0.142822265625
1534604409.610.962890625,-0.305419921875,0.1416015625
1534604409.610.9658203125,-0.308349609375,0.143798828125
1534604409.620.968017578125,-0.308349609375,0.1435546875
1534604409.620.97021484375,-0.310302734375,0.139892578125
1534604409.620.968994140625,-0.306884765625,0.14453125
1534604409.620.96728515625,-0.30908203125,0.142822265625
1534604409.620.96826171875,-0.305419921875,0.140625
1534604409.620.963623046875,-0.3056640625,0.137939453125
1534604409.630.96728515625,-0.303466796875,0.144775390625
1534604409.630.968505859375,-0.306396484375,0.14599609375
1534604409.630.9677734375,-0.305419921875,0.146484375
1534604409.630.966796875,-0.304443359375,0.1435546875
1534604409.640.96630859375,-0.302490234375,0.14013671875
1534604409.640.968994140625,-0.302001953125,0.1416015625
1534604409.640.96923828125,-0.30517578125,0.14111328125
1534604409.640.968505859375,-0.30615234375,0.142333984375
1534604409.640.967041015625,-0.3037109375,0.142822265625
1534604409.640.965576171875,-0.302734375,0.142333984375
1534604409.640.96826171875,-0.304931640625,0.13916015625
1534604409.650.966064453125,-0.303466796875,0.14453125
1534604409.650.969482421875,-0.306640625,0.145263671875
1534604409.650.969482421875,-0.303466796875,0.134765625
1534604409.650.97021484375,-0.299560546875,0.138671875
1534604409.650.966796875,-0.29736328125,0.137939453125
1534604409.660.966552734375,-0.2998046875,0.141845703125
1534604409.660.970703125,-0.305419921875,0.14013671875
1534604409.660.96875,-0.3037109375,0.140380859375
1534604409.660.9697265625,-0.301025390625,0.13818359375
1534604409.660.967041015625,-0.2978515625,0.13427734375
1534604409.660.966064453125,-0.3017578125,0.136962890625
1534604409.670.966064453125,-0.29833984375,0.141357421875
1534604409.670.966552734375,-0.299560546875,0.141357421875
1534604409.670.96826171875,-0.29931640625,0.13525390625
1534604409.670.967529296875,-0.292724609375,0.13134765625
1534604409.670.967529296875,-0.296875,0.135498046875
1534604409.670.968017578125,-0.296875,0.13671875
1534604409.680.96826171875,-0.2958984375,0.13818359375
1534604409.680.97021484375,-0.297607421875,0.135498046875
1534604409.680.97021484375,-0.2939453125,0.141845703125
1534604409.690.970703125,-0.292724609375,0.140869140625
1534604409.690.968505859375,-0.30029296875,0.135986328125
1534604409.690.970458984375,-0.296142578125,0.1357421875
1534604409.70.969482421875,-0.296630859375,0.13818359375
1534604409.70.97119140625,-0.29638671875,0.137451171875
1534604409.70.971435546875,-0.296875,0.135986328125
1534604409.70.968505859375,-0.294921875,0.132080078125
1534604409.70.96630859375,-0.296875,0.137451171875
1534604409.70.968017578125,-0.2978515625,0.13720703125
1534604409.70.97412109375,-0.298828125,0.141845703125
1534604409.710.97314453125,-0.29443359375,0.13623046875
1534604409.710.971923828125,-0.294921875,0.1357421875
1534604409.710.97119140625,-0.294189453125,0.139892578125
1534604409.710.97412109375,-0.296630859375,0.132568359375
1534604409.710.969482421875,-0.296630859375,0.13525390625
1534604409.710.96923828125,-0.29638671875,0.1376953125
1534604409.710.970947265625,-0.293701171875,0.14013671875
1534604409.720.970458984375,-0.2958984375,0.1357421875
1534604409.720.969482421875,-0.297119140625,0.135009765625
1534604409.720.970703125,-0.29736328125,0.135986328125
1534604409.720.969970703125,-0.2958984375,0.139404296875
1534604409.720.9716796875,-0.300048828125,0.141845703125
1534604409.720.971923828125,-0.294921875,0.140380859375
1534604409.720.971923828125,-0.293701171875,0.141357421875
1534604409.730.968994140625,-0.29833984375,0.13916015625
1534604409.730.969482421875,-0.29541015625,0.14208984375
1534604409.730.969970703125,-0.298828125,0.13623046875
1534604409.730.97119140625,-0.299072265625,0.1396484375
1534604409.730.969482421875,-0.299072265625,0.142578125
1534604409.740.9677734375,-0.3017578125,0.14013671875
1534604409.740.96875,-0.2998046875,0.135009765625
1534604409.740.968017578125,-0.30322265625,0.141845703125
1534604409.740.96875,-0.304443359375,0.141357421875
1534604409.740.970947265625,-0.302490234375,0.14453125
1534604409.740.971435546875,-0.30419921875,0.138916015625
1534604409.750.974609375,-0.301025390625,0.145263671875
1534604409.750.9697265625,-0.298583984375,0.144287109375
1534604409.750.965576171875,-0.300048828125,0.14404296875
1534604409.750.96728515625,-0.302001953125,0.14453125
1534604409.750.96875,-0.3056640625,0.143310546875
1534604409.750.96728515625,-0.305908203125,0.140625
1534604409.760.971923828125,-0.3037109375,0.13916015625
1534604409.760.968505859375,-0.302490234375,0.142578125
1534604409.760.967529296875,-0.30322265625,0.14013671875
1534604409.760.96630859375,-0.306396484375,0.14306640625
1534604409.760.968505859375,-0.306884765625,0.1396484375
1534604409.770.9658203125,-0.3037109375,0.133056640625
1534604409.770.96630859375,-0.30517578125,0.133544921875
1534604409.770.96728515625,-0.304931640625,0.14306640625
1534604409.770.96728515625,-0.302490234375,0.14111328125
1534604409.770.970458984375,-0.3056640625,0.145751953125
1534604409.780.96484375,-0.30517578125,0.13818359375
1534604409.780.9658203125,-0.300537109375,0.134765625
1534604409.780.967041015625,-0.3037109375,0.1376953125
1534604409.780.9677734375,-0.304931640625,0.141357421875
1534604409.780.968505859375,-0.306396484375,0.14306640625
1534604409.780.97021484375,-0.303466796875,0.145751953125
1534604409.790.969970703125,-0.302001953125,0.14306640625
1534604409.790.968505859375,-0.301025390625,0.140625
1534604409.790.968505859375,-0.302001953125,0.1396484375
1534604409.790.969970703125,-0.3037109375,0.1416015625
1534604409.790.9697265625,-0.300537109375,0.140380859375
1534604409.790.968017578125,-0.30322265625,0.14697265625
1534604409.790.9677734375,-0.30615234375,0.140380859375
1534604409.790.966064453125,-0.305419921875,0.137939453125
1534604409.80.96630859375,-0.301513671875,0.14111328125
1534604409.80.968017578125,-0.302490234375,0.13916015625
1534604409.80.96923828125,-0.302978515625,0.143310546875
1534604409.80.967529296875,-0.2998046875,0.137939453125
1534604409.80.96923828125,-0.2998046875,0.137451171875
1534604409.80.97119140625,-0.30029296875,0.133544921875
1534604409.810.972900390625,-0.302734375,0.13720703125
1534604409.810.97021484375,-0.30712890625,0.13671875
1534604409.810.9697265625,-0.302001953125,0.14208984375
1534604409.810.97119140625,-0.2998046875,0.137939453125
1534604409.810.96923828125,-0.299560546875,0.138671875
1534604409.820.968017578125,-0.298583984375,0.142578125
1534604409.820.968994140625,-0.299072265625,0.137451171875
1534604409.820.965576171875,-0.2978515625,0.139404296875
1534604409.820.97119140625,-0.29638671875,0.13916015625
1534604409.820.97314453125,-0.29638671875,0.134765625
1534604409.820.970458984375,-0.296142578125,0.134765625
1534604409.830.96728515625,-0.294677734375,0.13330078125
1534604409.830.9716796875,-0.296875,0.138427734375
1534604409.830.967041015625,-0.2958984375,0.13720703125
1534604409.830.966064453125,-0.2958984375,0.131103515625
1534604409.830.9716796875,-0.294677734375,0.13720703125
1534604409.830.96923828125,-0.29541015625,0.142822265625
1534604409.840.96923828125,-0.291748046875,0.13916015625
1534604409.840.970703125,-0.297119140625,0.1357421875
1534604409.850.973388671875,-0.298583984375,0.1357421875
1534604409.850.974853515625,-0.298095703125,0.135986328125
1534604409.850.972412109375,-0.294677734375,0.134033203125
1534604409.850.970703125,-0.294189453125,0.134765625
1534604409.850.974365234375,-0.298095703125,0.134521484375
1534604409.850.974365234375,-0.2919921875,0.134521484375
1534604409.850.97412109375,-0.295654296875,0.138427734375
1534604409.860.97314453125,-0.298095703125,0.141845703125
1534604409.860.97216796875,-0.300048828125,0.138671875
1534604409.860.968994140625,-0.298828125,0.13427734375
1534604409.860.970947265625,-0.29736328125,0.139892578125
1534604409.860.970703125,-0.29833984375,0.137939453125
1534604409.860.971923828125,-0.300537109375,0.13671875
1534604409.860.97119140625,-0.297607421875,0.142578125
1534604409.870.9697265625,-0.297607421875,0.140625
1534604409.870.96875,-0.296630859375,0.13720703125
1534604409.870.97314453125,-0.302490234375,0.1337890625
1534604409.870.97119140625,-0.30078125,0.136962890625
1534604409.870.96923828125,-0.298583984375,0.13916015625
1534604409.870.9716796875,-0.301025390625,0.14306640625
1534604409.870.97314453125,-0.30322265625,0.1376953125
1534604409.880.970703125,-0.304931640625,0.14453125
1534604409.880.9716796875,-0.302490234375,0.14599609375
1534604409.880.969482421875,-0.301025390625,0.137939453125
1534604409.880.96337890625,-0.29638671875,0.1376953125
1534604409.880.96142578125,-0.302001953125,0.13818359375
1534604409.880.966796875,-0.303955078125,0.140380859375
1534604409.890.968994140625,-0.3046875,0.138916015625
1534604409.890.967529296875,-0.2998046875,0.134765625
1534604409.890.966552734375,-0.30322265625,0.136962890625
1534604409.890.9619140625,-0.302978515625,0.1376953125
1534604409.890.96533203125,-0.304443359375,0.141845703125
1534604409.890.968505859375,-0.305908203125,0.144775390625
1534604409.90.9677734375,-0.3046875,0.144775390625
1534604409.90.967529296875,-0.306396484375,0.142822265625
1534604409.90.96630859375,-0.303466796875,0.138916015625
1534604409.90.96484375,-0.301025390625,0.144287109375
1534604409.90.966552734375,-0.298828125,0.143798828125
1534604409.910.96923828125,-0.3046875,0.14453125
1534604409.910.968505859375,-0.306640625,0.14404296875
1534604409.910.96337890625,-0.30322265625,0.14208984375
1534604409.910.964111328125,-0.30419921875,0.144775390625
1534604409.910.965087890625,-0.305419921875,0.141845703125
1534604409.920.969970703125,-0.3056640625,0.14013671875
1534604409.920.964599609375,-0.300048828125,0.138427734375
1534604409.920.9619140625,-0.300048828125,0.13916015625
1534604409.920.965087890625,-0.300048828125,0.1396484375
1534604409.920.96337890625,-0.306396484375,0.14111328125
1534604409.920.9677734375,-0.304443359375,0.140625
1534604409.920.966796875,-0.301025390625,0.14013671875
1534604409.920.96435546875,-0.3037109375,0.14404296875
1534604409.930.963134765625,-0.3046875,0.145263671875
1534604409.930.96533203125,-0.3017578125,0.142578125
1534604409.930.96484375,-0.30078125,0.14111328125
1534604409.930.97021484375,-0.302001953125,0.13818359375
1534604409.930.97216796875,-0.30322265625,0.13720703125
1534604409.930.96728515625,-0.30078125,0.14013671875
1534604409.940.96826171875,-0.29443359375,0.1337890625
1534604409.940.96875,-0.2978515625,0.148681640625
1534604409.940.971923828125,-0.298095703125,0.145263671875
1534604409.940.970947265625,-0.301025390625,0.13623046875
1534604409.940.970458984375,-0.295166015625,0.134033203125
1534604409.950.96923828125,-0.2958984375,0.134521484375
1534604409.950.971923828125,-0.296875,0.137939453125
1534604409.950.972900390625,-0.298828125,0.13232421875
1534604409.950.9716796875,-0.298828125,0.134521484375
1534604409.950.97314453125,-0.299560546875,0.137939453125
1534604409.960.971435546875,-0.299072265625,0.135498046875
1534604409.960.967529296875,-0.295654296875,0.140625
1534604409.960.971923828125,-0.294921875,0.138427734375
1534604409.960.97119140625,-0.295654296875,0.139892578125
1534604409.960.97216796875,-0.2939453125,0.141845703125
1534604409.960.970703125,-0.296142578125,0.14013671875
1534604409.960.97021484375,-0.2939453125,0.1416015625
1534604409.960.96826171875,-0.29443359375,0.140380859375
1534604409.970.968994140625,-0.297119140625,0.1376953125
1534604409.970.96826171875,-0.296875,0.13623046875
1534604409.970.967041015625,-0.296875,0.13916015625
1534604409.970.96923828125,-0.29833984375,0.145751953125
1534604409.970.96728515625,-0.303955078125,0.1396484375
1534604409.970.967529296875,-0.2998046875,0.138916015625
1534604409.970.971435546875,-0.300048828125,0.130859375
1534604409.980.96923828125,-0.297607421875,0.135009765625
1534604409.980.9658203125,-0.297607421875,0.137451171875
1534604409.980.9716796875,-0.3037109375,0.140380859375
1534604409.990.9716796875,-0.300048828125,0.13916015625
1534604409.990.9697265625,-0.30322265625,0.140625
1534604409.990.96923828125,-0.305419921875,0.140625
1534604409.990.97216796875,-0.305419921875,0.136962890625
1534604409.990.96826171875,-0.30419921875,0.13232421875
1534604410.00.9677734375,-0.30419921875,0.1328125
1534604410.00.970458984375,-0.3037109375,0.13720703125
1534604410.00.968994140625,-0.303955078125,0.13720703125
1534604410.00.969482421875,-0.303466796875,0.137451171875
1534604410.00.969970703125,-0.30224609375,0.135009765625
1534604410.00.967041015625,-0.30419921875,0.137939453125
1534604410.00.9677734375,-0.306640625,0.141845703125
1534604410.010.966796875,-0.303955078125,0.1357421875
1534604410.010.966064453125,-0.3046875,0.140380859375
1534604410.010.96923828125,-0.308837890625,0.149169921875
1534604410.010.970458984375,-0.306640625,0.146484375
1534604410.010.96728515625,-0.304443359375,0.14111328125
1534604410.010.963623046875,-0.300537109375,0.139404296875
1534604410.010.962158203125,-0.3056640625,0.1328125
1534604410.020.97265625,-0.304443359375,0.1376953125
1534604410.020.970703125,-0.306884765625,0.13818359375
1534604410.020.964599609375,-0.30810546875,0.1416015625
1534604410.020.96630859375,-0.303955078125,0.139892578125
1534604410.020.96630859375,-0.309326171875,0.135986328125
1534604410.020.96533203125,-0.309814453125,0.1376953125
1534604410.030.967529296875,-0.302734375,0.13671875
1534604410.030.968505859375,-0.30322265625,0.139404296875
1534604410.030.965576171875,-0.3046875,0.149169921875
1534604410.030.9658203125,-0.3037109375,0.1435546875
1534604410.030.967041015625,-0.302490234375,0.146484375
1534604410.040.966552734375,-0.3046875,0.1474609375
1534604410.040.968505859375,-0.300537109375,0.14111328125
1534604410.040.967529296875,-0.300537109375,0.14208984375
1534604410.040.970703125,-0.302001953125,0.1396484375
1534604410.040.968017578125,-0.300537109375,0.1416015625
1534604410.040.96826171875,-0.30322265625,0.14013671875
1534604410.050.968994140625,-0.298828125,0.14599609375
1534604410.050.968505859375,-0.29931640625,0.14013671875
1534604410.050.96826171875,-0.298583984375,0.137451171875
1534604410.050.968017578125,-0.298828125,0.14111328125
1534604410.050.96826171875,-0.29833984375,0.138916015625
1534604410.060.969482421875,-0.297607421875,0.14501953125
1534604410.060.963623046875,-0.2958984375,0.1376953125
1534604410.060.967529296875,-0.299560546875,0.14453125
1534604410.060.966064453125,-0.30029296875,0.1376953125
1534604410.060.96728515625,-0.30078125,0.134521484375
1534604410.060.969482421875,-0.29833984375,0.135986328125
1534604410.070.968505859375,-0.299072265625,0.14208984375
1534604410.070.968017578125,-0.29736328125,0.150390625
1534604410.070.9677734375,-0.293212890625,0.14453125
1534604410.070.972412109375,-0.297119140625,0.139404296875
1534604410.080.972412109375,-0.298828125,0.14599609375
1534604410.080.97412109375,-0.295654296875,0.1435546875
1534604410.080.967041015625,-0.29541015625,0.13525390625
1534604410.080.96923828125,-0.295166015625,0.138916015625
1534604410.080.972412109375,-0.296630859375,0.138427734375
1534604410.080.968994140625,-0.295654296875,0.140869140625
1534604410.090.973876953125,-0.29248046875,0.1357421875
1534604410.090.976806640625,-0.292724609375,0.135986328125
1534604410.090.97509765625,-0.296630859375,0.1357421875
1534604410.090.970947265625,-0.296875,0.141845703125
1534604410.090.975341796875,-0.296875,0.143798828125
1534604410.090.9755859375,-0.298095703125,0.140869140625
1534604410.090.9716796875,-0.296142578125,0.143798828125
1534604410.090.966796875,-0.293701171875,0.13720703125
1534604410.10.966796875,-0.291259765625,0.13525390625
1534604410.10.96875,-0.291748046875,0.134765625
1534604410.10.969482421875,-0.293212890625,0.135986328125
1534604410.10.969970703125,-0.29443359375,0.141845703125
1534604410.10.967529296875,-0.29931640625,0.142333984375
1534604410.10.96826171875,-0.295166015625,0.13525390625
1534604410.10.97265625,-0.29638671875,0.13720703125
1534604410.110.972412109375,-0.297607421875,0.1337890625
1534604410.110.967529296875,-0.296875,0.14306640625
1534604410.110.9697265625,-0.30029296875,0.136962890625
1534604410.110.968505859375,-0.29736328125,0.134765625
1534604410.110.96630859375,-0.30224609375,0.146484375
1534604410.120.97119140625,-0.2998046875,0.13427734375
1534604410.120.96875,-0.30224609375,0.13818359375
1534604410.120.968017578125,-0.301025390625,0.137939453125
1534604410.120.967041015625,-0.2978515625,0.138427734375
1534604410.120.96875,-0.296630859375,0.140869140625
1534604410.120.968017578125,-0.298095703125,0.1435546875
1534604410.130.966796875,-0.30126953125,0.1396484375
1534604410.130.972900390625,-0.30517578125,0.1416015625
1534604410.130.970458984375,-0.30419921875,0.13720703125
1534604410.140.9697265625,-0.304931640625,0.141357421875
1534604410.140.96875,-0.30322265625,0.142578125
1534604410.140.96826171875,-0.3017578125,0.137939453125
1534604410.140.97265625,-0.30322265625,0.138671875
1534604410.140.96826171875,-0.300537109375,0.139892578125
1534604410.140.966552734375,-0.301513671875,0.1396484375
1534604410.150.972900390625,-0.303955078125,0.13720703125
1534604410.150.97265625,-0.303955078125,0.1357421875
1534604410.150.96728515625,-0.302001953125,0.138916015625
1534604410.150.97021484375,-0.303466796875,0.138916015625
1534604410.150.9677734375,-0.3056640625,0.139892578125
1534604410.150.96533203125,-0.302490234375,0.144287109375
1534604410.150.96337890625,-0.30322265625,0.13818359375
1534604410.160.965087890625,-0.302001953125,0.1435546875
1534604410.160.967529296875,-0.30419921875,0.140625
1534604410.160.970458984375,-0.302734375,0.1455078125
1534604410.160.963623046875,-0.302490234375,0.135986328125
1534604410.160.9638671875,-0.305908203125,0.137939453125
1534604410.160.96533203125,-0.307861328125,0.141357421875
1534604410.160.96533203125,-0.302490234375,0.142578125
1534604410.170.96728515625,-0.30078125,0.142822265625
1534604410.170.96484375,-0.30419921875,0.145751953125
1534604410.170.966796875,-0.305419921875,0.14111328125
1534604410.170.96630859375,-0.302001953125,0.14306640625
1534604410.170.968994140625,-0.3017578125,0.143798828125
1534604410.170.968994140625,-0.3037109375,0.145751953125
1534604410.170.9658203125,-0.30419921875,0.1396484375
1534604410.180.96875,-0.302490234375,0.13671875
1534604410.180.969482421875,-0.30224609375,0.14501953125
1534604410.180.971923828125,-0.3037109375,0.141357421875
1534604410.180.969970703125,-0.303466796875,0.1376953125
1534604410.180.96923828125,-0.30419921875,0.13623046875
1534604410.180.968505859375,-0.3046875,0.1337890625
1534604410.180.9697265625,-0.2998046875,0.13330078125
1534604410.190.9697265625,-0.301025390625,0.138671875
1534604410.190.9765625,-0.30322265625,0.145751953125
1534604410.190.972900390625,-0.302001953125,0.1455078125
1534604410.190.968505859375,-0.298583984375,0.14794921875
1534604410.190.97021484375,-0.296630859375,0.14453125
1534604410.190.97314453125,-0.29931640625,0.1435546875
1534604410.20.970703125,-0.2958984375,0.13671875
1534604410.20.969482421875,-0.297119140625,0.14404296875
1534604410.20.970458984375,-0.299072265625,0.138916015625
1534604410.20.967041015625,-0.296875,0.143310546875
1534604410.20.965576171875,-0.297119140625,0.144775390625
1534604410.210.96435546875,-0.29248046875,0.138916015625
1534604410.210.966552734375,-0.2919921875,0.13720703125
1534604410.210.967529296875,-0.291259765625,0.13525390625
1534604410.210.973388671875,-0.301025390625,0.140625
1534604410.210.97216796875,-0.3037109375,0.138916015625
1534604410.220.970458984375,-0.2939453125,0.135986328125
1534604410.220.970703125,-0.296630859375,0.1328125
1534604410.220.972900390625,-0.30615234375,0.1396484375
1534604410.220.972412109375,-0.30517578125,0.138916015625
1534604410.220.9716796875,-0.30322265625,0.131591796875
1534604410.230.96435546875,-0.296630859375,0.127197265625
1534604410.230.973876953125,-0.301025390625,0.1337890625
1534604410.230.97607421875,-0.302001953125,0.135986328125
1534604410.230.9716796875,-0.30224609375,0.143798828125
1534604410.230.96826171875,-0.300537109375,0.1318359375
1534604410.240.963134765625,-0.296875,0.12939453125
1534604410.240.96923828125,-0.3056640625,0.135986328125
1534604410.240.97265625,-0.300537109375,0.139892578125
1534604410.240.972412109375,-0.299560546875,0.13623046875
1534604410.240.963623046875,-0.30322265625,0.137939453125
1534604410.240.96337890625,-0.302001953125,0.142333984375
1534604410.250.966552734375,-0.30078125,0.147705078125
1534604410.250.96630859375,-0.299560546875,0.146240234375
1534604410.250.96484375,-0.301513671875,0.142333984375
1534604410.250.96533203125,-0.30224609375,0.140869140625
1534604410.250.967529296875,-0.30517578125,0.14013671875
1534604410.250.96923828125,-0.302734375,0.136474609375
1534604410.250.96630859375,-0.30029296875,0.1376953125
1534604410.250.967041015625,-0.298583984375,0.144287109375
1534604410.260.965087890625,-0.297607421875,0.1455078125
1534604410.260.963134765625,-0.301025390625,0.14306640625
1534604410.260.967041015625,-0.30224609375,0.14013671875
1534604410.260.967041015625,-0.304443359375,0.140625
1534604410.260.968994140625,-0.302001953125,0.142333984375
1534604410.260.9677734375,-0.301025390625,0.14208984375
1534604410.260.966796875,-0.302490234375,0.137451171875
1534604410.270.97021484375,-0.3046875,0.13671875
1534604410.270.97021484375,-0.305419921875,0.13818359375
1534604410.270.9677734375,-0.304443359375,0.1396484375
1534604410.270.972412109375,-0.303955078125,0.14404296875
1534604410.270.9697265625,-0.30322265625,0.1396484375
1534604410.270.971923828125,-0.302734375,0.144775390625
1534604410.280.97314453125,-0.30224609375,0.14208984375
1534604410.280.971435546875,-0.3056640625,0.140625
1534604410.280.964111328125,-0.30615234375,0.140869140625
1534604410.290.962890625,-0.30078125,0.140625
1534604410.290.963623046875,-0.303466796875,0.134765625
1534604410.290.968017578125,-0.3046875,0.138916015625
1534604410.290.962646484375,-0.307373046875,0.136962890625
1534604410.290.965576171875,-0.307373046875,0.141357421875
1534604410.290.969482421875,-0.3037109375,0.14013671875
1534604410.290.96826171875,-0.301513671875,0.137451171875
1534604410.30.970947265625,-0.300537109375,0.137451171875
1534604410.30.972412109375,-0.301513671875,0.141357421875
1534604410.30.969970703125,-0.301025390625,0.14501953125
1534604410.30.967529296875,-0.30224609375,0.14404296875
1534604410.30.967041015625,-0.301513671875,0.14111328125
1534604410.30.9658203125,-0.302001953125,0.144287109375
1534604410.30.965576171875,-0.298583984375,0.141357421875
1534604410.310.9658203125,-0.301513671875,0.140380859375
1534604410.310.968017578125,-0.3037109375,0.14599609375
1534604410.310.9677734375,-0.2998046875,0.140380859375
1534604410.310.96826171875,-0.30078125,0.136962890625
1534604410.310.96923828125,-0.299560546875,0.13720703125
1534604410.310.96875,-0.3046875,0.137451171875
1534604410.310.96875,-0.302978515625,0.138427734375
1534604410.320.967041015625,-0.30224609375,0.137939453125
1534604410.320.968017578125,-0.303466796875,0.144287109375
1534604410.320.966552734375,-0.301513671875,0.142578125
1534604410.320.97119140625,-0.302001953125,0.139892578125
1534604410.320.969482421875,-0.304443359375,0.144775390625
1534604410.320.968505859375,-0.30224609375,0.142822265625
1534604410.320.96728515625,-0.300537109375,0.144287109375
1534604410.330.97265625,-0.3056640625,0.145263671875
1534604410.330.956298828125,-0.289306640625,0.140625
1534604410.330.96875,-0.303955078125,0.135498046875
1534604410.330.961181640625,-0.29052734375,0.140380859375
1534604410.330.982666015625,-0.316162109375,0.1494140625
1534604410.340.97119140625,-0.3017578125,0.136474609375
1534604410.340.952880859375,-0.284912109375,0.133056640625
1534604410.340.9716796875,-0.306396484375,0.14111328125
1534604410.340.96875,-0.288818359375,0.127197265625
1534604410.340.970458984375,-0.3056640625,0.1337890625
1534604410.350.96240234375,-0.288818359375,0.127685546875
1534604410.350.9482421875,-0.302978515625,0.135498046875
1534604410.350.98388671875,-0.298583984375,0.138916015625
1534604410.350.97021484375,-0.30810546875,0.147216796875
1534604410.350.96826171875,-0.2978515625,0.140869140625
1534604410.360.954833984375,-0.288818359375,0.128662109375
1534604410.360.9677734375,-0.305908203125,0.13330078125
1534604410.360.965087890625,-0.3056640625,0.13623046875
1534604410.360.9677734375,-0.303466796875,0.13720703125
1534604410.360.981201171875,-0.3134765625,0.140625
1534604410.360.96875,-0.28662109375,0.138427734375
1534604410.360.959228515625,-0.290283203125,0.14453125
1534604410.370.97216796875,-0.319091796875,0.133544921875
1534604410.370.965576171875,-0.2822265625,0.137939453125
1534604410.370.966796875,-0.304443359375,0.146240234375
1534604410.370.96875,-0.287353515625,0.134521484375
1534604410.370.9609375,-0.286376953125,0.13232421875
1534604410.370.992431640625,-0.32666015625,0.1298828125
1534604410.380.94384765625,-0.261962890625,0.125
1534604410.380.972900390625,-0.290771484375,0.142578125
1534604410.380.932861328125,-0.2685546875,0.1240234375
1534604410.381.02099609375,-0.3681640625,0.149169921875
1534604410.380.994384765625,-0.3193359375,0.13330078125
1534604410.390.94873046875,-0.260986328125,0.133056640625
1534604410.390.930419921875,-0.290283203125,0.139404296875
1534604410.391.02807617188,-0.328857421875,0.143310546875
1534604410.391.02026367188,-0.33837890625,0.1650390625
1534604410.390.968017578125,-0.336669921875,0.166748046875
1534604410.390.978759765625,-0.330078125,0.159423828125
1534604410.391.01049804688,-0.305419921875,0.137939453125
1534604410.40.958984375,-0.245361328125,0.124267578125
1534604410.40.89404296875,-0.30029296875,0.12255859375
1534604410.40.992919921875,-0.357666015625,0.127197265625
1534604410.41.02734375,-0.330322265625,0.14111328125
1534604410.40.984375,-0.306884765625,0.160400390625
1534604410.41.00073242188,-0.341796875,0.161865234375
1534604410.40.93115234375,-0.257568359375,0.1162109375
1534604410.410.95849609375,-0.3076171875,0.125
1534604410.410.958984375,-0.312744140625,0.14794921875
1534604410.410.98828125,-0.3359375,0.15087890625
1534604410.410.960205078125,-0.269775390625,0.136474609375
1534604410.410.985595703125,-0.34375,0.13232421875
1534604410.420.96142578125,-0.26416015625,0.14404296875
1534604410.420.97119140625,-0.28515625,0.165283203125
1534604410.420.990478515625,-0.335693359375,0.167724609375
1534604410.420.950927734375,-0.277587890625,0.128173828125
1534604410.420.947021484375,-0.30419921875,0.14013671875
1534604410.420.986572265625,-0.31396484375,0.14404296875
1534604410.420.966796875,-0.28369140625,0.13720703125
1534604410.430.96630859375,-0.282958984375,0.140625
1534604410.430.980712890625,-0.313720703125,0.145751953125
1534604410.430.98486328125,-0.31005859375,0.14306640625
1534604410.440.977294921875,-0.296875,0.135009765625
1534604410.440.95849609375,-0.302490234375,0.1396484375
1534604410.440.968994140625,-0.330810546875,0.141357421875
1534604410.440.963134765625,-0.288330078125,0.13232421875
1534604410.440.955322265625,-0.273681640625,0.13818359375
1534604410.440.974365234375,-0.29833984375,0.146728515625
1534604410.440.993896484375,-0.313720703125,0.150146484375
1534604410.450.968017578125,-0.292236328125,0.147216796875
1534604410.450.951416015625,-0.2900390625,0.140380859375
1534604410.450.9736328125,-0.316162109375,0.13671875
1534604410.450.970458984375,-0.302734375,0.1337890625
1534604410.450.96240234375,-0.295166015625,0.133544921875
1534604410.450.967529296875,-0.29833984375,0.137939453125
1534604410.450.983642578125,-0.29833984375,0.14306640625
1534604410.450.9755859375,-0.293701171875,0.143310546875
1534604410.460.96142578125,-0.298828125,0.138671875
1534604410.460.955078125,-0.29248046875,0.138671875
1534604410.460.95361328125,-0.29736328125,0.140869140625
1534604410.460.976806640625,-0.307861328125,0.134033203125
1534604410.460.974853515625,-0.294677734375,0.135009765625
1534604410.460.97021484375,-0.3017578125,0.14013671875
1534604410.460.96728515625,-0.29248046875,0.133056640625
1534604410.470.959716796875,-0.287841796875,0.13525390625
1534604410.470.96435546875,-0.298828125,0.137939453125
1534604410.470.982421875,-0.309814453125,0.140380859375
1534604410.470.97705078125,-0.29296875,0.13916015625
1534604410.470.95654296875,-0.292724609375,0.1396484375
1534604410.470.956787109375,-0.295654296875,0.12744140625
1534604410.480.955810546875,-0.295166015625,0.129150390625
1534604410.480.970458984375,-0.3037109375,0.13623046875
1534604410.480.978759765625,-0.299560546875,0.1435546875
1534604410.480.96923828125,-0.29541015625,0.139892578125
1534604410.480.959228515625,-0.288818359375,0.13232421875
1534604410.480.958984375,-0.30029296875,0.129638671875
1534604410.490.96923828125,-0.306396484375,0.13427734375
1534604410.490.96875,-0.297607421875,0.138427734375
1534604410.490.978515625,-0.30908203125,0.141845703125
1534604410.490.963623046875,-0.290283203125,0.13525390625
1534604410.490.97412109375,-0.304443359375,0.139404296875
1534604410.50.9794921875,-0.306396484375,0.142822265625
1534604410.50.973388671875,-0.302001953125,0.149658203125
1534604410.50.96630859375,-0.29736328125,0.135009765625
1534604410.50.97021484375,-0.302490234375,0.1337890625
1534604410.50.966796875,-0.299072265625,0.139404296875
1534604410.50.96240234375,-0.29443359375,0.132080078125
1534604410.510.973388671875,-0.301513671875,0.145263671875
1534604410.510.973876953125,-0.30517578125,0.140625
1534604410.510.97216796875,-0.30224609375,0.1376953125
1534604410.510.966552734375,-0.293212890625,0.138427734375
1534604410.510.974609375,-0.3017578125,0.14013671875
1534604410.510.97119140625,-0.29443359375,0.145263671875
1534604410.520.97119140625,-0.305908203125,0.136474609375
1534604410.520.964111328125,-0.297119140625,0.139892578125
1534604410.520.964111328125,-0.299072265625,0.1396484375
1534604410.520.97509765625,-0.303955078125,0.138916015625
1534604410.520.970947265625,-0.30126953125,0.14404296875
1534604410.530.971435546875,-0.301513671875,0.1455078125
1534604410.530.9677734375,-0.296875,0.14501953125
1534604410.530.96630859375,-0.298828125,0.13818359375
1534604410.530.970947265625,-0.297607421875,0.149169921875
1534604410.530.968017578125,-0.300048828125,0.1455078125
1534604410.530.96923828125,-0.2919921875,0.147705078125
1534604410.540.965576171875,-0.300048828125,0.14453125
1534604410.540.96435546875,-0.299072265625,0.143798828125
1534604410.540.967041015625,-0.299072265625,0.147705078125
1534604410.540.971923828125,-0.30517578125,0.142822265625
1534604410.540.97265625,-0.299072265625,0.14794921875
1534604410.540.972412109375,-0.30078125,0.148193359375
1534604410.550.968017578125,-0.30126953125,0.14013671875
1534604410.550.96875,-0.30078125,0.141357421875
1534604410.550.96875,-0.30029296875,0.140869140625
1534604410.550.96875,-0.298583984375,0.139404296875
1534604410.550.96875,-0.300537109375,0.14453125
1534604410.550.969482421875,-0.30126953125,0.14404296875
1534604410.550.97119140625,-0.300537109375,0.140380859375
1534604410.550.968505859375,-0.30224609375,0.137451171875
1534604410.560.96875,-0.304931640625,0.1376953125
1534604410.560.97265625,-0.303466796875,0.138427734375
1534604410.560.977294921875,-0.3017578125,0.146484375
1534604410.560.97021484375,-0.29833984375,0.139404296875
1534604410.560.966796875,-0.30078125,0.1396484375
1534604410.560.964599609375,-0.30029296875,0.13916015625
1534604410.570.963134765625,-0.302734375,0.13525390625
1534604410.570.9658203125,-0.302734375,0.139892578125
1534604410.580.96630859375,-0.300048828125,0.145751953125
1534604410.580.968505859375,-0.302490234375,0.1455078125
1534604410.580.965576171875,-0.3017578125,0.14501953125
1534604410.580.96728515625,-0.296875,0.140380859375
1534604410.580.96728515625,-0.298095703125,0.135498046875
1534604410.580.964599609375,-0.296875,0.140869140625
1534604410.580.96435546875,-0.29541015625,0.147216796875
1534604410.590.96435546875,-0.2998046875,0.134521484375
1534604410.590.96484375,-0.297119140625,0.134033203125
1534604410.590.963623046875,-0.299072265625,0.13525390625
1534604410.590.96875,-0.294921875,0.142822265625
1534604410.590.970947265625,-0.294677734375,0.141845703125
1534604410.590.970703125,-0.305419921875,0.13916015625
1534604410.590.970703125,-0.303466796875,0.1396484375
1534604410.60.96484375,-0.299072265625,0.14404296875
1534604410.60.96337890625,-0.29931640625,0.137939453125
1534604410.60.96728515625,-0.301025390625,0.134765625
1534604410.60.968017578125,-0.298583984375,0.14013671875
1534604410.60.968017578125,-0.300537109375,0.136962890625
1534604410.60.9716796875,-0.2998046875,0.135009765625
1534604410.60.9677734375,-0.29833984375,0.14111328125
1534604410.610.968017578125,-0.298095703125,0.13916015625
1534604410.610.968505859375,-0.30224609375,0.1357421875
1534604410.610.96875,-0.2978515625,0.138671875
1534604410.610.970458984375,-0.30078125,0.13525390625
1534604410.610.969482421875,-0.29736328125,0.139892578125
1534604410.610.970947265625,-0.29443359375,0.1396484375
1534604410.610.973876953125,-0.2978515625,0.135986328125
1534604410.620.97119140625,-0.30078125,0.137451171875
1534604410.620.96240234375,-0.300048828125,0.133544921875
1534604410.620.970703125,-0.299560546875,0.13671875
1534604410.620.96875,-0.2998046875,0.135986328125
1534604410.620.96923828125,-0.30224609375,0.138671875
1534604410.620.96923828125,-0.298583984375,0.141845703125
1534604410.630.965087890625,-0.299072265625,0.1435546875
1534604410.630.96435546875,-0.30029296875,0.143310546875
1534604410.630.968017578125,-0.293701171875,0.1376953125
1534604410.630.97021484375,-0.296875,0.1376953125
1534604410.630.968994140625,-0.2978515625,0.13818359375
1534604410.630.96484375,-0.295654296875,0.140869140625
1534604410.640.966552734375,-0.29833984375,0.140380859375
1534604410.640.96728515625,-0.2939453125,0.141845703125
1534604410.640.969482421875,-0.296142578125,0.139892578125
1534604410.640.965576171875,-0.296875,0.142578125
1534604410.640.970458984375,-0.30029296875,0.139892578125
1534604410.650.96923828125,-0.304443359375,0.14501953125
1534604410.650.968017578125,-0.303955078125,0.144775390625
1534604410.650.9697265625,-0.302001953125,0.14453125
1534604410.650.968994140625,-0.30224609375,0.145263671875
1534604410.650.968505859375,-0.299072265625,0.1435546875
1534604410.650.969482421875,-0.30078125,0.136474609375
1534604410.660.969482421875,-0.29638671875,0.14599609375
1534604410.660.97119140625,-0.303466796875,0.13525390625
1534604410.660.9736328125,-0.299072265625,0.13427734375
1534604410.660.971435546875,-0.306640625,0.138671875
1534604410.660.971923828125,-0.306396484375,0.13427734375
1534604410.660.9697265625,-0.302978515625,0.136474609375
1534604410.670.97265625,-0.302734375,0.1376953125
1534604410.670.9697265625,-0.3017578125,0.142333984375
1534604410.680.970947265625,-0.3056640625,0.14208984375
1534604410.680.9716796875,-0.298095703125,0.141845703125
1534604410.680.96826171875,-0.30224609375,0.144287109375
1534604410.680.96630859375,-0.297119140625,0.135498046875
1534604410.680.967041015625,-0.302490234375,0.138671875
1534604410.680.966552734375,-0.307861328125,0.143798828125
1534604410.690.965087890625,-0.30615234375,0.142578125
1534604410.690.965087890625,-0.302734375,0.14013671875
1534604410.690.96630859375,-0.293701171875,0.13623046875
1534604410.690.96630859375,-0.300537109375,0.13427734375
1534604410.690.970947265625,-0.30224609375,0.137451171875
1534604410.690.966796875,-0.30029296875,0.1396484375
1534604410.70.9658203125,-0.304443359375,0.14306640625
1534604410.70.96826171875,-0.304443359375,0.140869140625
1534604410.70.96533203125,-0.303955078125,0.137939453125
1534604410.70.96728515625,-0.30126953125,0.13916015625
1534604410.70.967041015625,-0.30126953125,0.134033203125
1534604410.70.967041015625,-0.302978515625,0.137939453125
1534604410.710.970703125,-0.303466796875,0.13427734375
1534604410.710.96923828125,-0.302490234375,0.139892578125
1534604410.710.969482421875,-0.30224609375,0.137939453125
1534604410.710.970703125,-0.303955078125,0.1357421875
1534604410.710.969970703125,-0.301513671875,0.146484375
1534604410.720.971923828125,-0.304931640625,0.133056640625
1534604410.720.97119140625,-0.3037109375,0.140380859375
1534604410.720.968505859375,-0.30322265625,0.133544921875
1534604410.730.968017578125,-0.30224609375,0.1318359375
1534604410.730.970458984375,-0.305908203125,0.1357421875
1534604410.730.969970703125,-0.30517578125,0.141357421875
1534604410.730.971435546875,-0.29931640625,0.141357421875
1534604410.730.96728515625,-0.29931640625,0.14306640625
1534604410.730.965576171875,-0.299560546875,0.138427734375
1534604410.740.966796875,-0.30126953125,0.14306640625
1534604410.740.96728515625,-0.29931640625,0.1416015625
1534604410.740.968505859375,-0.29833984375,0.139892578125
1534604410.740.9716796875,-0.300537109375,0.139404296875
1534604410.740.96728515625,-0.300537109375,0.136962890625
1534604410.740.968505859375,-0.3017578125,0.140869140625
1534604410.740.971435546875,-0.302734375,0.14404296875
1534604410.750.9716796875,-0.298095703125,0.14404296875
1534604410.750.968505859375,-0.2978515625,0.140625
1534604410.750.968505859375,-0.298583984375,0.14208984375
1534604410.750.968505859375,-0.29833984375,0.146484375
1534604410.750.971435546875,-0.298095703125,0.141357421875
1534604410.750.968994140625,-0.2998046875,0.140869140625
1534604410.750.970703125,-0.292236328125,0.144775390625
1534604410.760.9697265625,-0.294677734375,0.1455078125
1534604410.760.9697265625,-0.2958984375,0.142822265625
1534604410.760.969482421875,-0.298828125,0.134521484375
1534604410.760.97119140625,-0.30029296875,0.14013671875
1534604410.760.970703125,-0.30029296875,0.140869140625
1534604410.760.96728515625,-0.29833984375,0.142578125
1534604410.760.970458984375,-0.298828125,0.1376953125
1534604410.770.9716796875,-0.298583984375,0.13818359375
1534604410.770.970947265625,-0.298583984375,0.14111328125
1534604410.770.97119140625,-0.2998046875,0.14013671875
1534604410.770.970458984375,-0.298583984375,0.146484375
1534604410.770.9697265625,-0.296875,0.146484375
1534604410.770.969482421875,-0.298828125,0.148193359375
1534604410.770.96923828125,-0.302978515625,0.143310546875
1534604410.780.969482421875,-0.29541015625,0.141357421875
1534604410.780.969970703125,-0.297607421875,0.142822265625
1534604410.780.969482421875,-0.2939453125,0.137939453125
1534604410.780.968994140625,-0.297607421875,0.1416015625
1534604410.780.966796875,-0.301025390625,0.140869140625
1534604410.780.9658203125,-0.3017578125,0.14453125
1534604410.790.969482421875,-0.30224609375,0.145263671875
1534604410.790.971435546875,-0.297119140625,0.143310546875
1534604410.790.97265625,-0.295166015625,0.137939453125
1534604410.790.96728515625,-0.30078125,0.135498046875
1534604410.790.9697265625,-0.30078125,0.144287109375
1534604410.80.970458984375,-0.301025390625,0.137451171875
1534604410.80.968994140625,-0.2998046875,0.14111328125
1534604410.80.9697265625,-0.2978515625,0.1416015625
1534604410.80.96875,-0.30224609375,0.140625
1534604410.80.96630859375,-0.300048828125,0.136962890625
1534604410.80.9658203125,-0.301513671875,0.147216796875
1534604410.810.9677734375,-0.30078125,0.137939453125
1534604410.810.96728515625,-0.30322265625,0.13720703125
1534604410.810.969482421875,-0.30126953125,0.13916015625
1534604410.810.969482421875,-0.29833984375,0.140380859375
1534604410.810.967529296875,-0.30126953125,0.141845703125
1534604410.820.9697265625,-0.299560546875,0.14013671875
1534604410.820.970458984375,-0.30029296875,0.133544921875
1534604410.820.968017578125,-0.30615234375,0.14208984375
1534604410.820.964599609375,-0.3017578125,0.14013671875
1534604410.820.967529296875,-0.300537109375,0.140380859375
1534604410.830.968994140625,-0.30322265625,0.138427734375
1534604410.830.968994140625,-0.300048828125,0.13818359375
1534604410.830.966796875,-0.30029296875,0.137451171875
1534604410.830.96630859375,-0.3037109375,0.139892578125
1534604410.830.968505859375,-0.302490234375,0.14404296875
1534604410.830.97119140625,-0.300537109375,0.142578125
1534604410.830.969482421875,-0.3017578125,0.136474609375
1534604410.830.96728515625,-0.301025390625,0.135498046875
1534604410.840.9716796875,-0.30126953125,0.1435546875
1534604410.840.97119140625,-0.299072265625,0.134765625
1534604410.840.9697265625,-0.30078125,0.13623046875
1534604410.840.966796875,-0.308349609375,0.136962890625
1534604410.840.96826171875,-0.30224609375,0.134521484375
1534604410.840.968505859375,-0.302978515625,0.136474609375
1534604410.840.9697265625,-0.3037109375,0.1357421875
1534604410.850.968017578125,-0.3037109375,0.142578125
1534604410.850.96728515625,-0.301025390625,0.142333984375
1534604410.850.968017578125,-0.298583984375,0.13818359375
1534604410.850.968505859375,-0.305419921875,0.142822265625
1534604410.850.96826171875,-0.30419921875,0.1376953125
1534604410.860.9716796875,-0.30419921875,0.1376953125
1534604410.860.970458984375,-0.2978515625,0.13818359375
1534604410.860.970703125,-0.3017578125,0.13623046875
1534604410.860.967529296875,-0.302001953125,0.139404296875
1534604410.870.9658203125,-0.299560546875,0.140380859375
1534604410.870.96923828125,-0.29833984375,0.140380859375
1534604410.870.974853515625,-0.296875,0.141845703125
1534604410.880.970947265625,-0.29931640625,0.145263671875
1534604410.880.969970703125,-0.297119140625,0.13916015625
1534604410.880.9716796875,-0.297607421875,0.139404296875
1534604410.880.972412109375,-0.298828125,0.1435546875
1534604410.880.971923828125,-0.30029296875,0.145263671875
1534604410.880.9736328125,-0.29931640625,0.14453125
1534604410.880.970947265625,-0.2978515625,0.14404296875
1534604410.890.969482421875,-0.302001953125,0.14453125
1534604410.890.97119140625,-0.3017578125,0.14208984375
1534604410.890.97021484375,-0.29833984375,0.14453125
1534604410.890.97021484375,-0.3017578125,0.141845703125
1534604410.890.966796875,-0.300537109375,0.137451171875
1534604410.890.966796875,-0.295654296875,0.140869140625
1534604410.890.970947265625,-0.30029296875,0.140869140625
1534604410.890.97216796875,-0.295654296875,0.139404296875
1534604410.90.968994140625,-0.29296875,0.13720703125
1534604410.90.967529296875,-0.29638671875,0.142822265625
1534604410.90.9716796875,-0.2998046875,0.1396484375
1534604410.90.9697265625,-0.301025390625,0.142822265625
1534604410.90.971923828125,-0.29833984375,0.1396484375
1534604410.90.97216796875,-0.2958984375,0.1376953125
1534604410.910.96923828125,-0.29736328125,0.137939453125
1534604410.910.9697265625,-0.300048828125,0.139892578125
1534604410.910.968505859375,-0.297607421875,0.140380859375
1534604410.910.96630859375,-0.2978515625,0.142578125
1534604410.910.969970703125,-0.29736328125,0.13720703125
1534604410.910.968994140625,-0.297119140625,0.141357421875
1534604410.920.970947265625,-0.301025390625,0.145751953125
1534604410.920.968017578125,-0.302978515625,0.142333984375
1534604410.920.968017578125,-0.29833984375,0.139892578125
1534604410.920.970703125,-0.2978515625,0.143798828125
1534604410.920.97021484375,-0.296875,0.14111328125
1534604410.920.9677734375,-0.30126953125,0.13671875
1534604410.930.9677734375,-0.30126953125,0.13623046875
1534604410.930.971923828125,-0.29833984375,0.14501953125
1534604410.930.96826171875,-0.298828125,0.140625
1534604410.930.972412109375,-0.30078125,0.13720703125
1534604410.930.969970703125,-0.300537109375,0.138427734375
1534604410.940.967529296875,-0.30126953125,0.136962890625
1534604410.940.96533203125,-0.300048828125,0.14208984375
1534604410.940.967529296875,-0.300537109375,0.144287109375
1534604410.940.970947265625,-0.299072265625,0.138916015625
1534604410.940.970458984375,-0.3017578125,0.13427734375
1534604410.940.970703125,-0.302978515625,0.140380859375
1534604410.950.967041015625,-0.299072265625,0.140869140625
1534604410.950.96728515625,-0.302978515625,0.130859375
1534604410.950.966552734375,-0.304931640625,0.134033203125
1534604410.950.96728515625,-0.3017578125,0.134765625
1534604410.950.96826171875,-0.302734375,0.140625
1534604410.950.970703125,-0.30126953125,0.131591796875
1534604410.960.968017578125,-0.30126953125,0.14013671875
1534604410.960.967529296875,-0.304931640625,0.1396484375
1534604410.960.968505859375,-0.301513671875,0.139892578125
1534604410.960.968994140625,-0.3056640625,0.134033203125
1534604410.960.967529296875,-0.299072265625,0.133544921875
1534604410.970.964111328125,-0.3056640625,0.13525390625
1534604410.970.966552734375,-0.302978515625,0.139892578125
1534604410.970.965087890625,-0.302978515625,0.144287109375
1534604410.970.961669921875,-0.30224609375,0.14697265625
1534604410.970.96435546875,-0.29931640625,0.13720703125
1534604410.970.97119140625,-0.302490234375,0.139404296875
1534604410.970.966796875,-0.30224609375,0.140625
1534604410.980.9658203125,-0.298095703125,0.142578125
1534604410.980.969970703125,-0.302001953125,0.14404296875
1534604410.980.970947265625,-0.30029296875,0.136962890625
1534604410.980.971435546875,-0.3017578125,0.13818359375
1534604410.980.967041015625,-0.302001953125,0.142333984375
1534604410.980.96923828125,-0.30078125,0.141845703125
1534604410.990.967529296875,-0.2998046875,0.138916015625
1534604410.990.97119140625,-0.300048828125,0.138671875
1534604410.990.96728515625,-0.300048828125,0.14013671875
1534604410.990.96826171875,-0.297119140625,0.14013671875
1534604410.990.96630859375,-0.300537109375,0.1357421875
1534604410.990.96630859375,-0.300048828125,0.134033203125
1534604411.00.968017578125,-0.2958984375,0.13916015625
1534604411.00.970947265625,-0.296630859375,0.14306640625
1534604411.00.970947265625,-0.299072265625,0.13916015625
1534604411.00.970703125,-0.297607421875,0.142578125
1534604411.00.97216796875,-0.298583984375,0.14111328125
1534604411.00.969482421875,-0.30029296875,0.140869140625
1534604411.00.967041015625,-0.298095703125,0.142333984375
1534604411.010.968017578125,-0.299072265625,0.14208984375
1534604411.010.96875,-0.300537109375,0.14306640625
1534604411.010.9658203125,-0.2998046875,0.145263671875
1534604411.010.9697265625,-0.30126953125,0.136962890625
1534604411.020.968994140625,-0.30029296875,0.14013671875
1534604411.020.969482421875,-0.302734375,0.13330078125
1534604411.020.971435546875,-0.297119140625,0.1416015625
1534604411.020.97216796875,-0.29296875,0.13720703125
1534604411.030.974853515625,-0.298583984375,0.141357421875
1534604411.030.974365234375,-0.298095703125,0.138916015625
1534604411.030.970703125,-0.300537109375,0.136474609375
1534604411.030.968017578125,-0.295654296875,0.13916015625
1534604411.030.971435546875,-0.297607421875,0.13916015625
1534604411.030.96826171875,-0.300048828125,0.135498046875
1534604411.030.967529296875,-0.29833984375,0.136474609375
1534604411.030.9697265625,-0.296875,0.142578125
1534604411.040.97265625,-0.298095703125,0.140625
1534604411.040.96923828125,-0.29638671875,0.135498046875
1534604411.040.97119140625,-0.29736328125,0.137939453125
1534604411.040.969970703125,-0.297119140625,0.1376953125
1534604411.040.973876953125,-0.298095703125,0.138916015625
1534604411.040.969482421875,-0.2978515625,0.13671875
1534604411.040.97119140625,-0.301513671875,0.137451171875
1534604411.050.970703125,-0.301025390625,0.139892578125
1534604411.050.973388671875,-0.300537109375,0.138427734375
1534604411.050.972900390625,-0.299072265625,0.13671875
1534604411.050.973876953125,-0.29833984375,0.1376953125
1534604411.050.97265625,-0.30224609375,0.143310546875
1534604411.050.9677734375,-0.299560546875,0.1376953125
1534604411.050.9677734375,-0.299560546875,0.140380859375
1534604411.060.967529296875,-0.30419921875,0.139892578125
1534604411.060.969482421875,-0.303466796875,0.14013671875
1534604411.060.96923828125,-0.29736328125,0.14111328125
1534604411.060.96728515625,-0.299072265625,0.138671875
1534604411.060.96630859375,-0.296142578125,0.135009765625
1534604411.070.965576171875,-0.30078125,0.137939453125
1534604411.070.97021484375,-0.302490234375,0.140625
1534604411.070.970703125,-0.300048828125,0.142333984375
1534604411.070.968017578125,-0.302001953125,0.137451171875
1534604411.070.969970703125,-0.299072265625,0.136474609375
1534604411.070.96728515625,-0.302978515625,0.13916015625
1534604411.080.964111328125,-0.30126953125,0.136474609375
1534604411.080.967041015625,-0.302001953125,0.142333984375
1534604411.080.9677734375,-0.301513671875,0.13623046875
1534604411.080.96728515625,-0.303466796875,0.1337890625
1534604411.080.97021484375,-0.30078125,0.1396484375
1534604411.080.965576171875,-0.3017578125,0.141845703125
1534604411.090.970703125,-0.302978515625,0.139892578125
1534604411.090.966552734375,-0.302734375,0.138916015625
1534604411.090.96875,-0.30322265625,0.141845703125
1534604411.090.9697265625,-0.303955078125,0.141357421875
1534604411.090.9677734375,-0.3056640625,0.146484375
1534604411.10.9677734375,-0.303955078125,0.13427734375
1534604411.10.966796875,-0.302734375,0.135009765625
1534604411.10.966796875,-0.301025390625,0.138671875
1534604411.10.96728515625,-0.301513671875,0.13671875
1534604411.10.96728515625,-0.30224609375,0.134765625
1534604411.10.96875,-0.3046875,0.142578125
1534604411.10.96728515625,-0.307861328125,0.137939453125
1534604411.110.966064453125,-0.300048828125,0.13916015625
1534604411.110.970703125,-0.300048828125,0.14404296875
1534604411.110.970703125,-0.30126953125,0.140380859375
1534604411.110.97021484375,-0.299072265625,0.136962890625
1534604411.110.964599609375,-0.3017578125,0.1416015625
1534604411.110.9697265625,-0.298828125,0.137451171875
1534604411.120.970458984375,-0.303466796875,0.14013671875
1534604411.120.968994140625,-0.3046875,0.1416015625
1534604411.120.9697265625,-0.3017578125,0.14208984375
1534604411.120.97216796875,-0.301513671875,0.143310546875
1534604411.120.97314453125,-0.3037109375,0.14208984375
1534604411.130.96923828125,-0.3017578125,0.1396484375
1534604411.130.974609375,-0.298828125,0.139892578125
1534604411.130.974365234375,-0.300048828125,0.146240234375
1534604411.130.970947265625,-0.30029296875,0.141845703125
1534604411.130.97119140625,-0.30126953125,0.140869140625
1534604411.130.971435546875,-0.29736328125,0.139892578125
1534604411.140.968994140625,-0.302978515625,0.140380859375
1534604411.140.97412109375,-0.29833984375,0.136962890625
1534604411.140.96875,-0.30029296875,0.14111328125
1534604411.140.969970703125,-0.30224609375,0.14111328125
1534604411.140.96923828125,-0.2998046875,0.137939453125
1534604411.140.97119140625,-0.29345703125,0.1357421875
1534604411.150.966552734375,-0.296875,0.14306640625
1534604411.150.97021484375,-0.299072265625,0.136474609375
1534604411.150.968505859375,-0.296142578125,0.135986328125
1534604411.160.968994140625,-0.297119140625,0.1357421875
1534604411.160.97119140625,-0.296875,0.137939453125
1534604411.160.970703125,-0.297119140625,0.14453125
1534604411.160.971923828125,-0.296142578125,0.141357421875
1534604411.170.9697265625,-0.297119140625,0.139892578125
1534604411.170.96728515625,-0.299560546875,0.142333984375
1534604411.170.968505859375,-0.296875,0.139892578125
1534604411.170.967041015625,-0.29736328125,0.136474609375
1534604411.170.96923828125,-0.302001953125,0.13427734375
1534604411.170.97119140625,-0.298828125,0.1376953125
1534604411.170.971923828125,-0.296630859375,0.13427734375
1534604411.180.968017578125,-0.298828125,0.130126953125
1534604411.180.96875,-0.3017578125,0.13720703125
1534604411.180.972900390625,-0.299072265625,0.142822265625
1534604411.180.969970703125,-0.294677734375,0.140380859375
1534604411.180.968994140625,-0.301025390625,0.1376953125
1534604411.180.969970703125,-0.299072265625,0.13525390625
1534604411.180.96875,-0.30126953125,0.137939453125
1534604411.190.9658203125,-0.301513671875,0.14013671875
1534604411.190.970458984375,-0.2958984375,0.1416015625
1534604411.190.968994140625,-0.29931640625,0.138916015625
1534604411.190.966796875,-0.30126953125,0.139892578125
1534604411.190.967041015625,-0.299560546875,0.141357421875
1534604411.190.968017578125,-0.301513671875,0.13623046875
1534604411.190.972412109375,-0.30126953125,0.13671875
1534604411.20.973388671875,-0.301025390625,0.141845703125
1534604411.20.9677734375,-0.29931640625,0.137939453125
1534604411.20.96875,-0.298583984375,0.139404296875
1534604411.20.969970703125,-0.3037109375,0.144775390625
1534604411.20.967529296875,-0.29833984375,0.143310546875
1534604411.20.970947265625,-0.298095703125,0.139404296875
1534604411.210.968994140625,-0.296630859375,0.14306640625
1534604411.210.964599609375,-0.302001953125,0.140380859375
1534604411.210.971923828125,-0.301513671875,0.14111328125
1534604411.210.970458984375,-0.304443359375,0.142333984375
1534604411.210.966552734375,-0.303466796875,0.1416015625
1534604411.210.96533203125,-0.303955078125,0.138427734375
1534604411.210.967529296875,-0.302734375,0.140380859375
1534604411.220.96728515625,-0.300537109375,0.142822265625
1534604411.220.964111328125,-0.30419921875,0.14306640625
1534604411.220.968505859375,-0.30126953125,0.14697265625
1534604411.220.9716796875,-0.301025390625,0.14111328125
1534604411.220.9677734375,-0.301025390625,0.137939453125
1534604411.220.966064453125,-0.301513671875,0.142333984375
1534604411.220.964599609375,-0.303955078125,0.144775390625
1534604411.220.9638671875,-0.3056640625,0.144287109375
1534604411.230.966552734375,-0.302001953125,0.13916015625
1534604411.230.967529296875,-0.302978515625,0.14111328125
1534604411.230.96728515625,-0.300537109375,0.140625
1534604411.230.96875,-0.296630859375,0.14013671875
1534604411.230.97119140625,-0.30029296875,0.14306640625
1534604411.240.970458984375,-0.300048828125,0.140869140625
1534604411.240.970703125,-0.3056640625,0.14111328125
1534604411.240.9677734375,-0.300048828125,0.138427734375
1534604411.240.96728515625,-0.299560546875,0.134765625
1534604411.240.967041015625,-0.301025390625,0.139404296875
1534604411.240.968505859375,-0.302978515625,0.14501953125
1534604411.250.97021484375,-0.29833984375,0.13818359375
1534604411.250.97216796875,-0.30322265625,0.138427734375
1534604411.250.969482421875,-0.302001953125,0.1357421875
1534604411.250.97216796875,-0.2958984375,0.1416015625
1534604411.250.9697265625,-0.297119140625,0.14013671875
1534604411.250.966796875,-0.302734375,0.14013671875
1534604411.260.969482421875,-0.29931640625,0.144287109375
1534604411.270.969970703125,-0.30517578125,0.1328125
1534604411.270.96875,-0.30126953125,0.134521484375
1534604411.280.972900390625,-0.296875,0.136474609375
1534604411.280.9697265625,-0.298583984375,0.138671875
1534604411.280.968994140625,-0.298583984375,0.143310546875
1534604411.280.966552734375,-0.298828125,0.1337890625
1534604411.280.971923828125,-0.2958984375,0.140625
1534604411.280.967529296875,-0.302490234375,0.138916015625
1534604411.290.970703125,-0.299072265625,0.144775390625
1534604411.290.971435546875,-0.299560546875,0.141357421875
1534604411.290.971923828125,-0.30029296875,0.141845703125
1534604411.30.965576171875,-0.2958984375,0.14306640625
1534604411.30.966552734375,-0.299072265625,0.143798828125
1534604411.30.96630859375,-0.299072265625,0.146240234375
1534604411.30.96875,-0.294189453125,0.142578125
1534604411.30.966796875,-0.29638671875,0.140869140625
1534604411.30.97021484375,-0.30029296875,0.137451171875
1534604411.310.970947265625,-0.301513671875,0.13232421875
1534604411.310.967529296875,-0.297607421875,0.137451171875
1534604411.310.96875,-0.301025390625,0.1416015625
1534604411.310.968505859375,-0.30078125,0.141845703125
1534604411.310.972900390625,-0.301513671875,0.140625
1534604411.310.974853515625,-0.30419921875,0.139892578125
1534604411.310.971923828125,-0.301513671875,0.134765625
1534604411.310.968994140625,-0.3017578125,0.134521484375
1534604411.320.970458984375,-0.302490234375,0.13671875
1534604411.320.97021484375,-0.302001953125,0.1396484375
1534604411.320.971435546875,-0.302490234375,0.136962890625
1534604411.320.97119140625,-0.30322265625,0.140380859375
1534604411.320.968505859375,-0.302734375,0.141845703125
1534604411.320.968994140625,-0.301513671875,0.142333984375
1534604411.330.97119140625,-0.30126953125,0.13623046875
1534604411.330.96630859375,-0.30029296875,0.134765625
1534604411.330.96728515625,-0.3017578125,0.131103515625
1534604411.330.96875,-0.300537109375,0.132080078125
1534604411.330.9697265625,-0.30322265625,0.136962890625
1534604411.330.97021484375,-0.30419921875,0.1396484375
1534604411.330.96728515625,-0.300048828125,0.13623046875
1534604411.330.970947265625,-0.302734375,0.1337890625
1534604411.340.9736328125,-0.30126953125,0.13916015625
1534604411.340.968994140625,-0.301513671875,0.1396484375
1534604411.340.96728515625,-0.30078125,0.140625
1534604411.340.965576171875,-0.302978515625,0.1396484375
1534604411.340.962890625,-0.301513671875,0.140869140625
1534604411.340.968017578125,-0.3017578125,0.14013671875
1534604411.350.9697265625,-0.300048828125,0.1455078125
1534604411.350.9638671875,-0.305419921875,0.14453125
1534604411.350.9609375,-0.299560546875,0.135009765625
1534604411.350.9677734375,-0.2998046875,0.138671875
1534604411.350.966552734375,-0.2958984375,0.140869140625
1534604411.360.968017578125,-0.3037109375,0.136962890625
1534604411.360.96484375,-0.298583984375,0.13818359375
1534604411.360.97314453125,-0.30126953125,0.14111328125
1534604411.360.96728515625,-0.29931640625,0.14111328125
1534604411.360.9716796875,-0.30322265625,0.140869140625
1534604411.370.97412109375,-0.30322265625,0.135986328125
1534604411.370.96630859375,-0.297607421875,0.13525390625
1534604411.370.968994140625,-0.304443359375,0.14501953125
1534604411.370.969482421875,-0.30126953125,0.139892578125
1534604411.370.969970703125,-0.301025390625,0.136962890625
1534604411.370.96826171875,-0.30029296875,0.1376953125
1534604411.380.9658203125,-0.30078125,0.13818359375
1534604411.380.96533203125,-0.299560546875,0.143798828125
1534604411.380.96630859375,-0.298828125,0.14453125
1534604411.380.964111328125,-0.300048828125,0.14306640625
1534604411.380.966064453125,-0.29833984375,0.1416015625
1534604411.380.96875,-0.298828125,0.13818359375
1534604411.380.967041015625,-0.298095703125,0.137939453125
1534604411.380.969970703125,-0.301513671875,0.13671875
1534604411.380.97265625,-0.303955078125,0.138427734375
1534604411.390.969482421875,-0.302734375,0.139892578125
1534604411.390.971923828125,-0.302978515625,0.1416015625
1534604411.390.969482421875,-0.302490234375,0.142822265625
1534604411.390.96875,-0.300537109375,0.14208984375
1534604411.390.96875,-0.297607421875,0.14208984375
1534604411.390.971435546875,-0.298828125,0.140869140625
1534604411.40.969482421875,-0.297119140625,0.137939453125
1534604411.40.97119140625,-0.299072265625,0.141357421875
1534604411.40.9677734375,-0.3037109375,0.1416015625
1534604411.40.969482421875,-0.30078125,0.138671875
1534604411.40.970703125,-0.296630859375,0.13720703125
1534604411.40.967041015625,-0.29736328125,0.13671875
1534604411.410.968505859375,-0.296875,0.14111328125
1534604411.410.9716796875,-0.30322265625,0.134521484375
1534604411.410.967041015625,-0.30322265625,0.135498046875
1534604411.410.968017578125,-0.296875,0.14306640625
1534604411.410.97021484375,-0.29736328125,0.138916015625
1534604411.410.96826171875,-0.297607421875,0.14208984375
1534604411.420.96875,-0.299560546875,0.141357421875
1534604411.420.970703125,-0.299560546875,0.1376953125
1534604411.420.96875,-0.29736328125,0.14208984375
1534604411.420.96826171875,-0.297607421875,0.135498046875
1534604411.420.970947265625,-0.29931640625,0.135986328125
1534604411.420.96826171875,-0.29833984375,0.139404296875
1534604411.430.970703125,-0.297119140625,0.1376953125
1534604411.430.9658203125,-0.29833984375,0.133544921875
1534604411.430.96826171875,-0.300537109375,0.141845703125
1534604411.430.968994140625,-0.298095703125,0.14453125
1534604411.430.964599609375,-0.298583984375,0.135986328125
1534604411.430.969482421875,-0.296630859375,0.13671875
1534604411.440.970703125,-0.2998046875,0.145263671875
1534604411.440.970458984375,-0.30078125,0.13818359375
1534604411.440.971435546875,-0.297607421875,0.142822265625
1534604411.450.968505859375,-0.298095703125,0.142578125
1534604411.450.96875,-0.300537109375,0.139892578125
1534604411.450.968505859375,-0.300537109375,0.139404296875
1534604411.450.970947265625,-0.298095703125,0.1376953125
1534604411.450.96826171875,-0.29638671875,0.138427734375
1534604411.460.966796875,-0.300537109375,0.138671875
1534604411.460.969482421875,-0.298828125,0.13671875
1534604411.460.96875,-0.3017578125,0.14111328125
1534604411.460.968505859375,-0.298095703125,0.136962890625
1534604411.460.966796875,-0.300048828125,0.141357421875
1534604411.460.965576171875,-0.298095703125,0.140625
1534604411.460.969970703125,-0.3017578125,0.138916015625
1534604411.470.967041015625,-0.301513671875,0.1376953125
1534604411.470.96630859375,-0.3037109375,0.137939453125
1534604411.470.9677734375,-0.30126953125,0.13818359375
1534604411.470.964111328125,-0.298828125,0.133056640625
1534604411.470.96337890625,-0.300537109375,0.14306640625
1534604411.470.96630859375,-0.3017578125,0.142822265625
1534604411.480.967041015625,-0.301025390625,0.144287109375
1534604411.480.969970703125,-0.29931640625,0.138427734375
1534604411.480.968505859375,-0.30615234375,0.1435546875
1534604411.480.970947265625,-0.303466796875,0.1416015625
1534604411.480.96875,-0.30615234375,0.142822265625
1534604411.480.971435546875,-0.302490234375,0.142822265625
1534604411.480.971923828125,-0.302490234375,0.143310546875
1534604411.490.968994140625,-0.29931640625,0.13720703125
1534604411.490.96630859375,-0.30029296875,0.13916015625
1534604411.490.965087890625,-0.300537109375,0.14111328125
1534604411.490.970703125,-0.302001953125,0.1435546875
1534604411.490.969482421875,-0.29931640625,0.145751953125
1534604411.490.966064453125,-0.302490234375,0.1396484375
1534604411.490.968994140625,-0.3037109375,0.13525390625
1534604411.50.967041015625,-0.30517578125,0.139892578125
1534604411.50.9697265625,-0.30224609375,0.139892578125
1534604411.50.9658203125,-0.300537109375,0.134765625
1534604411.50.96630859375,-0.299072265625,0.134521484375
1534604411.50.966552734375,-0.29931640625,0.13720703125
1534604411.50.9677734375,-0.300537109375,0.138427734375
1534604411.510.9697265625,-0.3037109375,0.138427734375
1534604411.510.968017578125,-0.3037109375,0.140380859375
1534604411.510.9697265625,-0.297607421875,0.141845703125
1534604411.510.971435546875,-0.296630859375,0.138916015625
1534604411.510.96728515625,-0.30126953125,0.138427734375
1534604411.520.968017578125,-0.295654296875,0.138427734375
1534604411.520.969482421875,-0.300048828125,0.1396484375
1534604411.520.96630859375,-0.30029296875,0.139404296875
1534604411.520.969970703125,-0.301025390625,0.138916015625
1534604411.520.96728515625,-0.294189453125,0.138427734375
1534604411.530.966796875,-0.29541015625,0.139892578125
1534604411.530.967529296875,-0.299560546875,0.143310546875
1534604411.530.969482421875,-0.299560546875,0.133544921875
1534604411.530.96875,-0.302001953125,0.135986328125
1534604411.530.967041015625,-0.29736328125,0.136474609375
1534604411.530.96728515625,-0.296630859375,0.1376953125
1534604411.540.96826171875,-0.302490234375,0.1376953125
1534604411.540.96826171875,-0.300537109375,0.13623046875
1534604411.540.96728515625,-0.298583984375,0.1376953125
1534604411.540.96826171875,-0.296630859375,0.13916015625
1534604411.540.968505859375,-0.295166015625,0.137451171875
1534604411.540.967529296875,-0.302001953125,0.13720703125
1534604411.550.968505859375,-0.298583984375,0.14306640625
1534604411.550.969482421875,-0.298828125,0.1484375
1534604411.550.971435546875,-0.298828125,0.1494140625
1534604411.550.968017578125,-0.302490234375,0.146484375
1534604411.550.967529296875,-0.301025390625,0.138671875
1534604411.550.9677734375,-0.298583984375,0.1337890625
1534604411.550.969482421875,-0.2978515625,0.1376953125
1534604411.550.966064453125,-0.30224609375,0.14111328125
1534604411.560.966064453125,-0.299560546875,0.138916015625
1534604411.560.969970703125,-0.29638671875,0.139404296875
1534604411.560.96923828125,-0.299560546875,0.142333984375
1534604411.560.967041015625,-0.3017578125,0.13525390625
1534604411.560.967529296875,-0.30029296875,0.141845703125
1534604411.560.968994140625,-0.296875,0.13671875
1534604411.570.968505859375,-0.2978515625,0.13623046875
1534604411.570.971435546875,-0.299560546875,0.137451171875
1534604411.570.973388671875,-0.300537109375,0.1455078125
1534604411.570.96826171875,-0.301513671875,0.138916015625
1534604411.570.9697265625,-0.302001953125,0.14111328125
1534604411.570.967529296875,-0.298095703125,0.1376953125
1534604411.580.969482421875,-0.30224609375,0.14697265625
1534604411.580.968994140625,-0.300537109375,0.137939453125
1534604411.580.96923828125,-0.29931640625,0.13818359375
1534604411.590.970703125,-0.30078125,0.135498046875
1534604411.590.972900390625,-0.30224609375,0.135009765625
1534604411.590.96630859375,-0.299560546875,0.1435546875
1534604411.590.96728515625,-0.3017578125,0.14453125
1534604411.590.967041015625,-0.303466796875,0.12939453125
1534604411.590.966796875,-0.30322265625,0.134033203125
1534604411.60.967041015625,-0.301513671875,0.14404296875
1534604411.60.964111328125,-0.298583984375,0.146728515625
1534604411.60.96484375,-0.30224609375,0.144775390625
1534604411.60.96435546875,-0.30126953125,0.142333984375
1534604411.60.964599609375,-0.302001953125,0.137939453125
1534604411.60.966064453125,-0.298828125,0.13671875
1534604411.60.9697265625,-0.30029296875,0.14306640625
1534604411.610.969482421875,-0.30224609375,0.143798828125
1534604411.610.97021484375,-0.301513671875,0.142578125
1534604411.610.97119140625,-0.30126953125,0.144287109375
1534604411.610.970703125,-0.301025390625,0.145263671875
1534604411.610.96826171875,-0.302734375,0.144287109375
1534604411.610.9677734375,-0.300537109375,0.136474609375
1534604411.610.968994140625,-0.305419921875,0.13427734375
1534604411.620.96826171875,-0.299072265625,0.13330078125
1534604411.620.96826171875,-0.29638671875,0.137451171875
1534604411.620.96435546875,-0.30322265625,0.14404296875
1534604411.620.96240234375,-0.3046875,0.137939453125
1534604411.620.9697265625,-0.302001953125,0.138916015625
1534604411.620.96728515625,-0.303466796875,0.13671875
1534604411.620.968505859375,-0.301513671875,0.140380859375
1534604411.630.9677734375,-0.3017578125,0.14501953125
1534604411.630.96728515625,-0.302490234375,0.146728515625
1534604411.630.96435546875,-0.299072265625,0.138671875
1534604411.630.9677734375,-0.29931640625,0.13720703125
1534604411.630.968017578125,-0.3017578125,0.137939453125
1534604411.630.9658203125,-0.306884765625,0.140869140625
1534604411.640.968017578125,-0.30517578125,0.13720703125
1534604411.640.968505859375,-0.300048828125,0.140380859375
1534604411.640.967041015625,-0.299072265625,0.135498046875
1534604411.640.969970703125,-0.30078125,0.142822265625
1534604411.640.971923828125,-0.30078125,0.138671875
1534604411.640.97119140625,-0.29931640625,0.14111328125
1534604411.650.968994140625,-0.30126953125,0.14111328125
1534604411.650.97021484375,-0.30224609375,0.13916015625
1534604411.650.969970703125,-0.29931640625,0.139892578125
1534604411.650.970947265625,-0.302001953125,0.135986328125
1534604411.650.970458984375,-0.30029296875,0.140869140625
1534604411.650.96826171875,-0.299560546875,0.1474609375
1534604411.660.970703125,-0.298095703125,0.142578125
1534604411.660.97265625,-0.301513671875,0.141845703125
1534604411.660.970703125,-0.30224609375,0.13916015625
1534604411.660.9697265625,-0.300048828125,0.133056640625
1534604411.660.970458984375,-0.298583984375,0.141845703125
1534604411.660.969970703125,-0.297607421875,0.143798828125
1534604411.670.97265625,-0.298828125,0.139404296875
1534604411.670.96630859375,-0.294921875,0.1416015625
1534604411.670.965087890625,-0.2958984375,0.138427734375
1534604411.670.96533203125,-0.301513671875,0.14111328125
1534604411.670.966064453125,-0.299072265625,0.1376953125
1534604411.680.970703125,-0.2998046875,0.13720703125
1534604411.680.966552734375,-0.298583984375,0.142333984375
1534604411.680.96875,-0.299560546875,0.132080078125
1534604411.680.966796875,-0.302734375,0.145263671875
1534604411.680.9697265625,-0.299560546875,0.150146484375
1534604411.690.967529296875,-0.2998046875,0.140869140625
1534604411.690.966064453125,-0.298828125,0.141357421875
1534604411.690.96826171875,-0.300048828125,0.140625
1534604411.690.966064453125,-0.303955078125,0.143310546875
1534604411.690.96728515625,-0.302001953125,0.140869140625
1534604411.690.970947265625,-0.297607421875,0.13720703125
1534604411.690.974609375,-0.30126953125,0.141845703125
1534604411.70.970703125,-0.302734375,0.14013671875
1534604411.70.96826171875,-0.3017578125,0.132080078125
1534604411.70.970947265625,-0.3017578125,0.14111328125
1534604411.70.9736328125,-0.299072265625,0.14404296875
1534604411.70.974365234375,-0.300048828125,0.14111328125
1534604411.70.972900390625,-0.303955078125,0.1435546875
1534604411.70.968994140625,-0.302978515625,0.142578125
1534604411.70.97265625,-0.3037109375,0.132080078125
1534604411.710.969970703125,-0.298095703125,0.13916015625
1534604411.710.9697265625,-0.30029296875,0.13623046875
1534604411.710.96923828125,-0.30078125,0.14111328125
1534604411.710.969970703125,-0.302001953125,0.14306640625
1534604411.710.97119140625,-0.301513671875,0.14013671875
1534604411.720.967529296875,-0.30126953125,0.138916015625
1534604411.720.972412109375,-0.29833984375,0.13671875
1534604411.720.96826171875,-0.299072265625,0.137939453125
1534604411.720.967041015625,-0.3017578125,0.1396484375
1534604411.720.971923828125,-0.30078125,0.142578125
1534604411.720.97021484375,-0.296875,0.136474609375
1534604411.730.965087890625,-0.300537109375,0.136962890625
1534604411.730.9716796875,-0.302001953125,0.13916015625
1534604411.730.969970703125,-0.3046875,0.1337890625
1534604411.740.9697265625,-0.299560546875,0.133056640625
1534604411.740.9697265625,-0.3017578125,0.140380859375
1534604411.740.963623046875,-0.302490234375,0.13623046875
1534604411.740.968017578125,-0.30126953125,0.13916015625
1534604411.750.969482421875,-0.301513671875,0.135986328125
1534604411.750.968994140625,-0.30078125,0.133544921875
1534604411.750.972412109375,-0.2978515625,0.14404296875
1534604411.750.97314453125,-0.298828125,0.13671875
1534604411.750.971435546875,-0.297607421875,0.12939453125
1534604411.750.966552734375,-0.299560546875,0.135009765625
1534604411.750.969970703125,-0.300048828125,0.1357421875
1534604411.750.97119140625,-0.30126953125,0.1376953125
1534604411.760.97314453125,-0.298828125,0.138427734375
1534604411.760.97021484375,-0.302734375,0.136474609375
1534604411.760.969482421875,-0.301025390625,0.134765625
1534604411.760.967529296875,-0.30029296875,0.142578125
1534604411.760.9697265625,-0.302001953125,0.139404296875
1534604411.760.9677734375,-0.30224609375,0.138427734375
1534604411.770.96826171875,-0.300537109375,0.135986328125
1534604411.770.963623046875,-0.301025390625,0.13525390625
1534604411.770.961669921875,-0.30322265625,0.137451171875
1534604411.770.966552734375,-0.30126953125,0.137451171875
1534604411.770.967041015625,-0.298095703125,0.139892578125
1534604411.770.9697265625,-0.301513671875,0.13916015625
1534604411.770.969970703125,-0.302001953125,0.141845703125
1534604411.780.97021484375,-0.302978515625,0.1376953125
1534604411.780.970703125,-0.29736328125,0.131103515625
1534604411.780.969482421875,-0.2978515625,0.138671875
1534604411.780.966796875,-0.299072265625,0.134033203125
1534604411.780.96484375,-0.301025390625,0.13818359375
1534604411.780.967041015625,-0.2998046875,0.1357421875
1534604411.790.9677734375,-0.30517578125,0.141845703125
1534604411.790.97021484375,-0.30322265625,0.144775390625
1534604411.790.96923828125,-0.301025390625,0.141357421875
1534604411.790.97021484375,-0.29736328125,0.14013671875
1534604411.790.965087890625,-0.298095703125,0.1376953125
1534604411.80.969970703125,-0.30078125,0.136962890625
1534604411.80.9677734375,-0.3017578125,0.143310546875
1534604411.80.969482421875,-0.304443359375,0.141845703125
1534604411.80.968505859375,-0.302490234375,0.140869140625
1534604411.80.96923828125,-0.301025390625,0.143798828125
1534604411.80.9697265625,-0.302001953125,0.1455078125
1534604411.810.96728515625,-0.302001953125,0.14306640625
1534604411.810.969482421875,-0.30517578125,0.14111328125
1534604411.810.968994140625,-0.296630859375,0.1416015625
1534604411.810.968994140625,-0.297607421875,0.141357421875
1534604411.810.970458984375,-0.2998046875,0.142578125
1534604411.810.9697265625,-0.298583984375,0.1376953125
1534604411.820.966552734375,-0.298583984375,0.136962890625
1534604411.820.9697265625,-0.29931640625,0.1396484375
1534604411.820.96923828125,-0.30078125,0.144287109375
1534604411.820.9677734375,-0.299072265625,0.14453125
1534604411.820.96435546875,-0.30224609375,0.138916015625
1534604411.820.96533203125,-0.30224609375,0.1357421875
1534604411.830.96875,-0.299072265625,0.137939453125
1534604411.830.966796875,-0.300537109375,0.1396484375
1534604411.830.971435546875,-0.30224609375,0.13720703125
1534604411.830.966796875,-0.30322265625,0.139404296875
1534604411.830.9677734375,-0.30224609375,0.14013671875
1534604411.830.968017578125,-0.2998046875,0.139892578125
1534604411.840.97265625,-0.301025390625,0.141845703125
1534604411.840.967041015625,-0.30224609375,0.13671875
1534604411.840.970458984375,-0.30322265625,0.135009765625
1534604411.840.968994140625,-0.3017578125,0.138671875
1534604411.840.97412109375,-0.301513671875,0.1396484375
1534604411.840.971435546875,-0.299072265625,0.14208984375
1534604411.850.967529296875,-0.30029296875,0.142822265625
1534604411.850.96923828125,-0.300048828125,0.14013671875
1534604411.850.9658203125,-0.30224609375,0.14111328125
1534604411.850.969970703125,-0.30224609375,0.14208984375
1534604411.850.96875,-0.29833984375,0.14013671875
1534604411.860.966796875,-0.302001953125,0.140869140625
1534604411.860.9677734375,-0.297607421875,0.1396484375
1534604411.860.968017578125,-0.299560546875,0.1396484375
1534604411.860.967529296875,-0.30029296875,0.141845703125
1534604411.860.965087890625,-0.2998046875,0.14599609375
1534604411.860.969970703125,-0.2978515625,0.14111328125
1534604411.870.96630859375,-0.29931640625,0.138916015625
1534604411.870.9658203125,-0.297607421875,0.14013671875
1534604411.880.973388671875,-0.30322265625,0.14111328125
1534604411.880.9658203125,-0.29931640625,0.14111328125
1534604411.880.968017578125,-0.299560546875,0.137451171875
1534604411.880.96923828125,-0.30126953125,0.137939453125
1534604411.880.9736328125,-0.301025390625,0.140380859375
1534604411.880.972412109375,-0.300537109375,0.141845703125
1534604411.890.968505859375,-0.30126953125,0.136962890625
1534604411.890.96875,-0.302978515625,0.133544921875
1534604411.890.97314453125,-0.301513671875,0.13720703125
1534604411.890.971923828125,-0.2978515625,0.13818359375
1534604411.890.96826171875,-0.30078125,0.138427734375
1534604411.890.96826171875,-0.30322265625,0.13818359375
1534604411.890.970947265625,-0.30322265625,0.138427734375
1534604411.890.96533203125,-0.300048828125,0.1376953125
1534604411.90.96728515625,-0.302001953125,0.14013671875
1534604411.90.96484375,-0.30078125,0.14453125
1534604411.90.965576171875,-0.29833984375,0.145751953125
1534604411.90.9677734375,-0.30029296875,0.13916015625
1534604411.90.9677734375,-0.30029296875,0.140869140625
1534604411.90.97216796875,-0.299560546875,0.14453125
1534604411.90.97119140625,-0.298583984375,0.13818359375
1534604411.910.966552734375,-0.30126953125,0.13916015625
1534604411.910.9658203125,-0.30126953125,0.131591796875
1534604411.910.966552734375,-0.30029296875,0.130859375
1534604411.910.964599609375,-0.2998046875,0.140380859375
1534604411.910.9658203125,-0.29931640625,0.1435546875
1534604411.910.96630859375,-0.302978515625,0.137451171875
1534604411.920.965576171875,-0.29638671875,0.140625
1534604411.920.96923828125,-0.30322265625,0.141845703125
1534604411.920.96533203125,-0.302001953125,0.139892578125
1534604411.920.97021484375,-0.29931640625,0.138916015625
1534604411.920.969482421875,-0.302734375,0.1435546875
1534604411.930.96630859375,-0.30224609375,0.13623046875
1534604411.930.96630859375,-0.297119140625,0.136962890625
1534604411.930.96728515625,-0.29833984375,0.140380859375
1534604411.930.96484375,-0.30322265625,0.140380859375
1534604411.930.966796875,-0.29833984375,0.138916015625
1534604411.940.96728515625,-0.30126953125,0.1435546875
1534604411.940.966064453125,-0.29833984375,0.14208984375
1534604411.940.967529296875,-0.298828125,0.140869140625
1534604411.940.967529296875,-0.30126953125,0.14306640625
1534604411.940.968017578125,-0.30126953125,0.14013671875
1534604411.940.964599609375,-0.300048828125,0.137939453125
1534604411.950.968017578125,-0.3017578125,0.14111328125
1534604411.950.967529296875,-0.30029296875,0.140380859375
1534604411.950.967041015625,-0.301025390625,0.135498046875
1534604411.950.96826171875,-0.3017578125,0.134033203125
1534604411.950.969482421875,-0.2998046875,0.141845703125
1534604411.950.9658203125,-0.30224609375,0.135009765625
1534604411.950.971435546875,-0.302001953125,0.134765625
1534604411.960.972412109375,-0.3017578125,0.138671875
1534604411.960.968017578125,-0.3037109375,0.143798828125
1534604411.960.966552734375,-0.30224609375,0.141845703125
1534604411.960.9677734375,-0.29931640625,0.1416015625
1534604411.960.96875,-0.29833984375,0.14208984375
1534604411.960.968017578125,-0.30126953125,0.1416015625
1534604411.960.9658203125,-0.298583984375,0.1376953125
1534604411.970.9677734375,-0.298828125,0.136962890625
1534604411.970.969482421875,-0.301025390625,0.138427734375
1534604411.970.970947265625,-0.299072265625,0.140380859375
1534604411.970.97314453125,-0.300048828125,0.13818359375
1534604411.970.973388671875,-0.298095703125,0.141845703125
1534604411.970.968017578125,-0.2998046875,0.139404296875
1534604411.970.9638671875,-0.30126953125,0.1376953125
1534604411.980.96875,-0.2978515625,0.138916015625
1534604411.980.972412109375,-0.30126953125,0.13818359375
1534604411.980.969482421875,-0.30224609375,0.144775390625
1534604411.980.967041015625,-0.295166015625,0.139404296875
1534604411.980.965576171875,-0.302734375,0.138427734375
1534604411.980.968505859375,-0.30078125,0.139404296875
1534604411.990.97412109375,-0.301025390625,0.143798828125
1534604411.990.9716796875,-0.3037109375,0.143310546875
1534604411.990.96826171875,-0.30078125,0.137939453125
1534604411.990.969970703125,-0.302734375,0.13720703125
1534604411.990.96728515625,-0.302978515625,0.1376953125
1534604411.990.96728515625,-0.30419921875,0.140869140625
1534604412.00.96435546875,-0.300537109375,0.138916015625
1534604412.00.96728515625,-0.3037109375,0.1376953125
1534604412.00.967529296875,-0.30126953125,0.13623046875
1534604412.00.96923828125,-0.301025390625,0.14404296875
1534604412.00.969970703125,-0.301025390625,0.144775390625
1534604412.010.97021484375,-0.304931640625,0.135009765625
1534604412.010.967529296875,-0.300048828125,0.1416015625
1534604412.010.96630859375,-0.30126953125,0.140625
1534604412.010.96923828125,-0.3037109375,0.13623046875
1534604412.010.969482421875,-0.30517578125,0.134521484375
1534604412.010.968017578125,-0.302001953125,0.1376953125
1534604412.020.968505859375,-0.2978515625,0.133544921875
1534604412.020.971435546875,-0.300537109375,0.13720703125
1534604412.020.971923828125,-0.300537109375,0.14208984375
1534604412.020.96826171875,-0.30126953125,0.136962890625
1534604412.030.968994140625,-0.297119140625,0.134521484375
1534604412.030.970458984375,-0.299560546875,0.138916015625
1534604412.030.9736328125,-0.301025390625,0.1455078125
1534604412.030.970703125,-0.303466796875,0.1435546875
1534604412.030.967041015625,-0.300537109375,0.138427734375
1534604412.030.96826171875,-0.302490234375,0.137939453125
1534604412.030.967529296875,-0.3037109375,0.139404296875
1534604412.030.967529296875,-0.2978515625,0.141357421875
1534604412.040.96484375,-0.296630859375,0.141357421875
1534604412.040.96826171875,-0.297607421875,0.14111328125
1534604412.040.966796875,-0.303955078125,0.139404296875
1534604412.040.965087890625,-0.30322265625,0.13623046875
1534604412.040.968017578125,-0.30078125,0.137451171875
1534604412.040.9658203125,-0.29931640625,0.142578125
1534604412.040.9677734375,-0.301025390625,0.142822265625
1534604412.050.968994140625,-0.302001953125,0.140625
1534604412.050.965087890625,-0.2978515625,0.138427734375
1534604412.050.96826171875,-0.298583984375,0.13671875
1534604412.050.966796875,-0.30517578125,0.133056640625
1534604412.050.96923828125,-0.300048828125,0.138916015625
1534604412.050.96728515625,-0.296142578125,0.140625
1534604412.050.9677734375,-0.298583984375,0.142333984375
1534604412.060.96826171875,-0.29833984375,0.138916015625
1534604412.060.96630859375,-0.29833984375,0.138427734375
1534604412.060.9677734375,-0.302978515625,0.1435546875
1534604412.060.9677734375,-0.30517578125,0.144287109375
1534604412.060.969482421875,-0.299560546875,0.13232421875
1534604412.060.966796875,-0.299560546875,0.14013671875
1534604412.070.97314453125,-0.300537109375,0.141357421875
1534604412.070.97265625,-0.302001953125,0.1337890625
1534604412.070.970458984375,-0.298583984375,0.138916015625
1534604412.070.9716796875,-0.3017578125,0.14306640625
1534604412.070.967529296875,-0.301513671875,0.13623046875
1534604412.070.97216796875,-0.299560546875,0.142822265625
1534604412.080.96875,-0.3017578125,0.14306640625
1534604412.080.96826171875,-0.30126953125,0.13671875
1534604412.080.9658203125,-0.3017578125,0.139892578125
1534604412.080.96826171875,-0.29833984375,0.138427734375
1534604412.080.96728515625,-0.302490234375,0.137939453125
1534604412.090.9697265625,-0.30322265625,0.13818359375
1534604412.090.97021484375,-0.29931640625,0.143310546875
1534604412.090.9697265625,-0.29541015625,0.1396484375
1534604412.090.966796875,-0.303955078125,0.135009765625
1534604412.090.96826171875,-0.301025390625,0.13916015625
1534604412.090.96630859375,-0.300048828125,0.14013671875
1534604412.10.96826171875,-0.301513671875,0.138916015625
1534604412.10.968994140625,-0.30322265625,0.142578125
1534604412.10.975341796875,-0.30029296875,0.13916015625
1534604412.10.970947265625,-0.296630859375,0.1376953125
1534604412.10.970458984375,-0.293212890625,0.14306640625
1534604412.10.970703125,-0.29443359375,0.142333984375
1534604412.10.96875,-0.2978515625,0.13720703125
1534604412.10.969970703125,-0.30126953125,0.137939453125
1534604412.110.971435546875,-0.29638671875,0.144287109375
1534604412.110.968505859375,-0.300537109375,0.142578125
1534604412.110.969482421875,-0.29931640625,0.140869140625
1534604412.110.968505859375,-0.30029296875,0.13720703125
1534604412.110.96923828125,-0.305908203125,0.13818359375
1534604412.110.969482421875,-0.2998046875,0.13623046875
1534604412.120.962158203125,-0.3017578125,0.13720703125
1534604412.120.97216796875,-0.300537109375,0.141357421875
1534604412.120.97021484375,-0.299560546875,0.133544921875
1534604412.120.970703125,-0.3017578125,0.14013671875
1534604412.130.96923828125,-0.302734375,0.1357421875
1534604412.130.97021484375,-0.3017578125,0.13525390625
1534604412.130.967529296875,-0.303466796875,0.14306640625
1534604412.130.970947265625,-0.29833984375,0.137939453125
1534604412.130.97021484375,-0.2998046875,0.137939453125
1534604412.130.96630859375,-0.30419921875,0.14013671875
1534604412.140.964599609375,-0.303466796875,0.142578125
1534604412.140.97216796875,-0.302978515625,0.142333984375
1534604412.140.968994140625,-0.303466796875,0.142578125
1534604412.140.967529296875,-0.301025390625,0.13916015625
1534604412.140.97119140625,-0.302001953125,0.14208984375
1534604412.140.968017578125,-0.30419921875,0.143310546875
1534604412.140.9658203125,-0.305419921875,0.13916015625
1534604412.140.965576171875,-0.30517578125,0.140869140625
1534604412.150.96728515625,-0.296142578125,0.137451171875
1534604412.150.971435546875,-0.301025390625,0.14697265625
1534604412.150.96728515625,-0.301025390625,0.144775390625
1534604412.150.964599609375,-0.2998046875,0.143798828125
1534604412.160.962890625,-0.30126953125,0.143310546875
1534604412.160.969482421875,-0.2998046875,0.135009765625
1534604412.160.968505859375,-0.301025390625,0.138427734375
1534604412.160.96875,-0.302490234375,0.137939453125
1534604412.170.968994140625,-0.298095703125,0.1396484375
1534604412.170.96728515625,-0.294921875,0.1376953125
1534604412.170.970703125,-0.301025390625,0.138427734375
1534604412.170.968017578125,-0.306884765625,0.140869140625
1534604412.170.9677734375,-0.3056640625,0.14306640625
1534604412.170.967041015625,-0.30078125,0.138916015625
1534604412.170.96728515625,-0.301025390625,0.136962890625
1534604412.170.966552734375,-0.299072265625,0.13671875
1534604412.180.9677734375,-0.30419921875,0.138916015625
1534604412.180.96875,-0.304931640625,0.133056640625
1534604412.180.97216796875,-0.299560546875,0.139404296875
1534604412.180.970947265625,-0.298583984375,0.139404296875
1534604412.180.968017578125,-0.3017578125,0.141845703125
1534604412.180.968017578125,-0.3017578125,0.145263671875
1534604412.180.9638671875,-0.302001953125,0.142578125
1534604412.190.9638671875,-0.296630859375,0.139892578125
1534604412.190.969970703125,-0.30078125,0.135009765625
1534604412.190.968994140625,-0.298828125,0.13623046875
1534604412.190.96630859375,-0.2998046875,0.144287109375
1534604412.190.96923828125,-0.300537109375,0.140625
1534604412.190.96875,-0.29931640625,0.139892578125
1534604412.190.96826171875,-0.301025390625,0.13427734375
1534604412.20.965576171875,-0.30029296875,0.13916015625
1534604412.20.967041015625,-0.300537109375,0.139404296875
1534604412.20.968994140625,-0.301513671875,0.138671875
1534604412.20.97119140625,-0.3017578125,0.134033203125
1534604412.20.9677734375,-0.296630859375,0.140380859375
1534604412.20.9658203125,-0.30029296875,0.138671875
1534604412.20.968994140625,-0.29931640625,0.135498046875
1534604412.210.966064453125,-0.30126953125,0.139892578125
1534604412.210.968994140625,-0.302978515625,0.14697265625
1534604412.210.968994140625,-0.29931640625,0.139404296875
1534604412.210.97119140625,-0.302490234375,0.13916015625
1534604412.210.96728515625,-0.30078125,0.13623046875
1534604412.220.966064453125,-0.30322265625,0.137451171875
1534604412.220.968505859375,-0.304443359375,0.138671875
1534604412.220.972412109375,-0.298095703125,0.136474609375
1534604412.220.970458984375,-0.302001953125,0.1337890625
1534604412.220.965087890625,-0.301025390625,0.1357421875
1534604412.230.97021484375,-0.298828125,0.13818359375
1534604412.230.966064453125,-0.300048828125,0.1435546875
1534604412.230.97216796875,-0.300048828125,0.13427734375
1534604412.230.969970703125,-0.302734375,0.135498046875
1534604412.230.971923828125,-0.30078125,0.137451171875
1534604412.240.968505859375,-0.298828125,0.137451171875
1534604412.240.96728515625,-0.29833984375,0.140380859375
1534604412.240.969482421875,-0.302001953125,0.139892578125
1534604412.240.967529296875,-0.297119140625,0.135009765625
1534604412.240.96923828125,-0.29638671875,0.139892578125
1534604412.240.966796875,-0.299072265625,0.142333984375
1534604412.240.966552734375,-0.30029296875,0.14404296875
1534604412.250.96533203125,-0.300048828125,0.144287109375
1534604412.250.965087890625,-0.302490234375,0.139892578125
1534604412.250.969482421875,-0.2998046875,0.135986328125
1534604412.250.970458984375,-0.30126953125,0.138427734375
1534604412.250.970703125,-0.30126953125,0.13818359375
1534604412.250.970458984375,-0.29833984375,0.138427734375
1534604412.250.971435546875,-0.29736328125,0.135986328125
1534604412.250.969970703125,-0.30126953125,0.1337890625
1534604412.260.96826171875,-0.302978515625,0.1416015625
1534604412.260.972412109375,-0.29833984375,0.135009765625
1534604412.260.96630859375,-0.296875,0.137939453125
1534604412.260.96875,-0.30224609375,0.138916015625
1534604412.260.97021484375,-0.301025390625,0.14501953125
1534604412.260.97216796875,-0.29443359375,0.14599609375
1534604412.270.968017578125,-0.300537109375,0.139892578125
1534604412.270.968017578125,-0.298095703125,0.13525390625
1534604412.270.9658203125,-0.298095703125,0.13623046875
1534604412.270.97021484375,-0.300048828125,0.1474609375
1534604412.270.9677734375,-0.296630859375,0.143310546875
1534604412.280.970947265625,-0.298583984375,0.144287109375
1534604412.280.96875,-0.29443359375,0.14453125
1534604412.280.970703125,-0.297607421875,0.138427734375
1534604412.280.96875,-0.298828125,0.144775390625
1534604412.280.968505859375,-0.297607421875,0.144775390625
1534604412.280.966552734375,-0.2998046875,0.140869140625
1534604412.290.9716796875,-0.294677734375,0.137451171875
1534604412.290.968994140625,-0.295166015625,0.14208984375
1534604412.290.967041015625,-0.29931640625,0.142822265625
1534604412.290.970458984375,-0.298583984375,0.13818359375
1534604412.290.971435546875,-0.299560546875,0.139892578125
1534604412.290.96875,-0.29833984375,0.141357421875
1534604412.290.96826171875,-0.300537109375,0.1435546875
1534604412.290.96875,-0.2998046875,0.140869140625
1534604412.30.964599609375,-0.302001953125,0.140625
1534604412.30.966796875,-0.301513671875,0.1396484375
1534604412.30.970458984375,-0.297119140625,0.138916015625
1534604412.30.9677734375,-0.299560546875,0.142578125
1534604412.310.96923828125,-0.302001953125,0.148681640625
1534604412.310.967529296875,-0.3017578125,0.13330078125
1534604412.310.97021484375,-0.303466796875,0.139892578125
1534604412.320.968017578125,-0.306396484375,0.14013671875
1534604412.320.96728515625,-0.30224609375,0.13916015625
1534604412.320.968994140625,-0.299072265625,0.143310546875
1534604412.320.9677734375,-0.29931640625,0.139404296875
1534604412.320.96728515625,-0.301025390625,0.139892578125
1534604412.320.970458984375,-0.300537109375,0.139404296875
1534604412.320.96875,-0.302978515625,0.136962890625
1534604412.330.966552734375,-0.30322265625,0.132080078125
1534604412.330.9677734375,-0.30126953125,0.139892578125
1534604412.330.966796875,-0.30224609375,0.133544921875
1534604412.330.967529296875,-0.305908203125,0.138427734375
1534604412.330.968017578125,-0.30419921875,0.140869140625
1534604412.330.9677734375,-0.29736328125,0.142578125
1534604412.330.96875,-0.3017578125,0.131591796875
1534604412.330.96875,-0.302978515625,0.1337890625
1534604412.340.96826171875,-0.300048828125,0.1376953125
1534604412.340.96826171875,-0.30029296875,0.134765625
1534604412.340.965087890625,-0.30078125,0.13427734375
1534604412.340.973388671875,-0.30029296875,0.141357421875
1534604412.340.971435546875,-0.3017578125,0.13818359375
1534604412.340.96826171875,-0.303466796875,0.13720703125
1534604412.340.97021484375,-0.305908203125,0.14208984375
1534604412.350.96923828125,-0.302001953125,0.139404296875
1534604412.350.967529296875,-0.300537109375,0.13427734375
1534604412.350.96923828125,-0.300048828125,0.135009765625
1534604412.350.96923828125,-0.30126953125,0.136474609375
1534604412.350.972412109375,-0.302978515625,0.13671875
1534604412.350.966796875,-0.30419921875,0.1396484375
1534604412.360.969970703125,-0.30029296875,0.140625
1534604412.360.966796875,-0.301513671875,0.136474609375
1534604412.360.971435546875,-0.2978515625,0.140380859375
1534604412.360.97216796875,-0.29931640625,0.13720703125
1534604412.360.96826171875,-0.298583984375,0.142578125
1534604412.370.969482421875,-0.299560546875,0.13525390625
1534604412.370.968994140625,-0.298828125,0.13525390625
1534604412.370.968994140625,-0.299072265625,0.137939453125
1534604412.370.970947265625,-0.299560546875,0.139404296875
1534604412.370.973388671875,-0.2998046875,0.14208984375
1534604412.380.970703125,-0.298828125,0.135986328125
1534604412.380.968994140625,-0.29833984375,0.137939453125
1534604412.380.9716796875,-0.2998046875,0.143798828125
1534604412.380.9677734375,-0.300537109375,0.141357421875
1534604412.380.968994140625,-0.30078125,0.1435546875
1534604412.390.969970703125,-0.302734375,0.139404296875
1534604412.390.97216796875,-0.301513671875,0.13427734375
1534604412.390.9677734375,-0.299072265625,0.138427734375
1534604412.390.970947265625,-0.30126953125,0.142822265625
1534604412.390.969482421875,-0.302490234375,0.1416015625
1534604412.390.968994140625,-0.2998046875,0.14013671875
1534604412.390.969482421875,-0.301025390625,0.136962890625
1534604412.40.970947265625,-0.300048828125,0.13916015625
1534604412.40.968505859375,-0.2998046875,0.13720703125
1534604412.40.968505859375,-0.298583984375,0.14306640625
1534604412.40.9697265625,-0.2978515625,0.14453125
1534604412.40.96923828125,-0.299560546875,0.135009765625
1534604412.40.96826171875,-0.299072265625,0.138427734375
1534604412.40.969970703125,-0.30224609375,0.138427734375
1534604412.40.968505859375,-0.302734375,0.139404296875
1534604412.410.9677734375,-0.295654296875,0.14306640625
1534604412.410.967529296875,-0.30126953125,0.141357421875
1534604412.410.969482421875,-0.302490234375,0.14453125
1534604412.410.968017578125,-0.30029296875,0.140625
1534604412.410.97021484375,-0.302001953125,0.141845703125
1534604412.420.9658203125,-0.298828125,0.137939453125
1534604412.420.9677734375,-0.303466796875,0.137939453125
1534604412.420.96875,-0.302001953125,0.135009765625
1534604412.420.96728515625,-0.296875,0.137939453125
1534604412.420.9697265625,-0.303955078125,0.1416015625
1534604412.430.9697265625,-0.300537109375,0.138671875
1534604412.430.968994140625,-0.301513671875,0.1396484375
1534604412.430.966796875,-0.3017578125,0.138916015625
1534604412.430.967041015625,-0.300537109375,0.14111328125
1534604412.430.966064453125,-0.301025390625,0.143310546875
1534604412.430.966796875,-0.30078125,0.138916015625
1534604412.430.966796875,-0.30126953125,0.14208984375
1534604412.440.966796875,-0.301025390625,0.145263671875
1534604412.440.9697265625,-0.300537109375,0.142822265625
1534604412.440.968017578125,-0.301025390625,0.14013671875
1534604412.440.966064453125,-0.30126953125,0.136474609375
1534604412.440.969970703125,-0.299560546875,0.143310546875
1534604412.440.97216796875,-0.30078125,0.135986328125
1534604412.450.9697265625,-0.30419921875,0.135009765625
1534604412.460.970703125,-0.302734375,0.1435546875
1534604412.460.967529296875,-0.29833984375,0.140380859375
1534604412.460.96826171875,-0.301513671875,0.1435546875
1534604412.460.966064453125,-0.299560546875,0.138671875
1534604412.460.967529296875,-0.296630859375,0.14306640625
1534604412.460.967529296875,-0.298583984375,0.14013671875
1534604412.470.967529296875,-0.30126953125,0.13427734375
1534604412.470.9697265625,-0.297119140625,0.142333984375
1534604412.470.9677734375,-0.29541015625,0.141845703125
1534604412.470.96923828125,-0.298828125,0.13525390625
1534604412.470.96826171875,-0.29931640625,0.138916015625
1534604412.470.9697265625,-0.301513671875,0.135009765625
1534604412.470.9677734375,-0.297607421875,0.138671875
1534604412.480.971923828125,-0.298583984375,0.143798828125
1534604412.480.97021484375,-0.300537109375,0.140869140625
1534604412.480.968505859375,-0.29931640625,0.144775390625
1534604412.480.970703125,-0.30029296875,0.142578125
1534604412.480.9716796875,-0.29541015625,0.14501953125
1534604412.480.971923828125,-0.2958984375,0.142822265625
1534604412.480.97021484375,-0.297119140625,0.132568359375
1534604412.490.969970703125,-0.295166015625,0.13720703125
1534604412.490.969482421875,-0.300048828125,0.140625
1534604412.490.96875,-0.302734375,0.145751953125
1534604412.490.9716796875,-0.299560546875,0.141845703125
1534604412.490.9716796875,-0.29833984375,0.14453125
1534604412.490.965087890625,-0.30078125,0.140625
1534604412.50.9716796875,-0.2978515625,0.1416015625
1534604412.50.970703125,-0.298828125,0.138427734375
1534604412.50.969970703125,-0.2998046875,0.138671875
1534604412.50.968994140625,-0.30224609375,0.141357421875
1534604412.50.966064453125,-0.30126953125,0.1416015625
1534604412.50.968994140625,-0.300048828125,0.139404296875
1534604412.510.969970703125,-0.30126953125,0.140380859375
1534604412.510.968017578125,-0.29931640625,0.141357421875
1534604412.510.968017578125,-0.30224609375,0.140625
1534604412.510.97412109375,-0.298583984375,0.139892578125
1534604412.510.97265625,-0.298828125,0.136474609375
1534604412.520.967041015625,-0.298095703125,0.14453125
1534604412.520.966064453125,-0.298095703125,0.145751953125
1534604412.520.96875,-0.298095703125,0.137451171875
1534604412.520.96728515625,-0.302490234375,0.14111328125
1534604412.520.96826171875,-0.300537109375,0.13671875
1534604412.530.96630859375,-0.300048828125,0.143310546875
1534604412.530.96923828125,-0.302734375,0.139404296875
1534604412.530.969970703125,-0.30224609375,0.13916015625
1534604412.530.96875,-0.304443359375,0.14306640625
1534604412.530.965576171875,-0.3017578125,0.135498046875
1534604412.540.967529296875,-0.300537109375,0.134521484375
1534604412.540.96826171875,-0.29931640625,0.144287109375
1534604412.540.96240234375,-0.2998046875,0.139892578125
1534604412.540.9716796875,-0.303466796875,0.14013671875
1534604412.540.969482421875,-0.300537109375,0.134033203125
1534604412.550.965576171875,-0.298828125,0.137939453125
1534604412.550.965087890625,-0.29931640625,0.133544921875
1534604412.550.967529296875,-0.30126953125,0.142578125
1534604412.550.966552734375,-0.30078125,0.140625
1534604412.550.96630859375,-0.3056640625,0.1416015625
1534604412.550.966796875,-0.30322265625,0.1435546875
1534604412.550.9697265625,-0.30029296875,0.141845703125
1534604412.550.969970703125,-0.300048828125,0.13916015625
1534604412.560.965576171875,-0.301025390625,0.140380859375
1534604412.560.968994140625,-0.302001953125,0.14306640625
1534604412.560.970703125,-0.300048828125,0.14599609375
1534604412.560.968017578125,-0.299560546875,0.1416015625
1534604412.560.96728515625,-0.299560546875,0.144287109375
1534604412.560.9697265625,-0.300048828125,0.14306640625
1534604412.560.970703125,-0.30029296875,0.139892578125
1534604412.560.9697265625,-0.300537109375,0.1396484375
1534604412.570.968505859375,-0.30078125,0.13818359375
1534604412.570.96728515625,-0.303955078125,0.139404296875
1534604412.570.973388671875,-0.29833984375,0.146240234375
1534604412.570.968994140625,-0.30078125,0.14208984375
1534604412.570.966552734375,-0.30517578125,0.13720703125
1534604412.570.966796875,-0.30419921875,0.136962890625
1534604412.570.969970703125,-0.296630859375,0.13916015625
1534604412.580.9677734375,-0.302001953125,0.141357421875
1534604412.580.972412109375,-0.29833984375,0.139404296875
1534604412.580.96630859375,-0.30029296875,0.147216796875
1534604412.580.969482421875,-0.299560546875,0.13525390625
1534604412.580.9677734375,-0.30126953125,0.139892578125
1534604412.590.973388671875,-0.301025390625,0.1396484375
1534604412.590.969482421875,-0.3017578125,0.14599609375
1534604412.60.966552734375,-0.30322265625,0.1337890625
1534604412.60.969482421875,-0.298583984375,0.140869140625
1534604412.60.971435546875,-0.300048828125,0.145751953125
1534604412.60.96826171875,-0.300537109375,0.142333984375
1534604412.60.96923828125,-0.298828125,0.14306640625
1534604412.60.96826171875,-0.29931640625,0.140625
1534604412.610.96875,-0.2998046875,0.140380859375
1534604412.610.971923828125,-0.300048828125,0.138671875
1534604412.610.970947265625,-0.3017578125,0.137451171875
1534604412.610.968505859375,-0.296142578125,0.138427734375
1534604412.610.969970703125,-0.29638671875,0.139892578125
1534604412.610.970703125,-0.298828125,0.140380859375
1534604412.610.967529296875,-0.301513671875,0.138916015625
1534604412.620.9716796875,-0.301025390625,0.14404296875
1534604412.620.974853515625,-0.30126953125,0.1416015625
1534604412.620.967529296875,-0.301513671875,0.138916015625
1534604412.620.96826171875,-0.298095703125,0.13818359375
1534604412.620.968994140625,-0.30078125,0.141845703125
1534604412.620.96875,-0.299560546875,0.1435546875
1534604412.620.966064453125,-0.300537109375,0.140380859375
1534604412.630.966064453125,-0.30078125,0.13427734375
1534604412.630.9697265625,-0.299072265625,0.13916015625
1534604412.630.971435546875,-0.30126953125,0.141357421875
1534604412.630.970947265625,-0.3037109375,0.137451171875
1534604412.630.97216796875,-0.300537109375,0.14013671875
1534604412.630.970947265625,-0.298828125,0.142578125
1534604412.630.967529296875,-0.30126953125,0.136474609375
1534604412.630.9658203125,-0.30224609375,0.140869140625
1534604412.640.968505859375,-0.303466796875,0.14013671875
1534604412.640.970458984375,-0.304443359375,0.140380859375
1534604412.640.969482421875,-0.3046875,0.13818359375
1534604412.640.969482421875,-0.299072265625,0.14501953125
1534604412.640.967529296875,-0.299560546875,0.142333984375
1534604412.650.96728515625,-0.29833984375,0.140625
1534604412.650.96875,-0.300537109375,0.144287109375
1534604412.650.96728515625,-0.302734375,0.1435546875
1534604412.650.966064453125,-0.30078125,0.136474609375
1534604412.650.96923828125,-0.29736328125,0.13720703125
1534604412.650.966552734375,-0.30322265625,0.132080078125
1534604412.660.96728515625,-0.3017578125,0.139892578125
1534604412.660.968017578125,-0.30322265625,0.1416015625
1534604412.660.9658203125,-0.303955078125,0.138916015625
1534604412.660.970458984375,-0.300537109375,0.140380859375
1534604412.660.96435546875,-0.30224609375,0.138671875
1534604412.660.966796875,-0.302734375,0.14306640625
1534604412.670.973388671875,-0.302978515625,0.1396484375
1534604412.670.9677734375,-0.302734375,0.14208984375
1534604412.670.970458984375,-0.296142578125,0.136474609375
1534604412.670.962890625,-0.302978515625,0.14013671875
1534604412.670.968017578125,-0.304931640625,0.135986328125
1534604412.680.968994140625,-0.299072265625,0.139404296875
1534604412.680.96826171875,-0.29931640625,0.13818359375
1534604412.680.974609375,-0.2978515625,0.14306640625
1534604412.680.964599609375,-0.303466796875,0.145751953125
1534604412.680.96337890625,-0.303466796875,0.13818359375
1534604412.690.968017578125,-0.298583984375,0.1435546875
1534604412.690.9677734375,-0.300537109375,0.141845703125
1534604412.690.969970703125,-0.297119140625,0.14111328125
1534604412.690.9716796875,-0.295166015625,0.138916015625
1534604412.690.96923828125,-0.299560546875,0.13818359375
1534604412.690.97021484375,-0.29736328125,0.135009765625
1534604412.690.96728515625,-0.298828125,0.13818359375
1534604412.70.968017578125,-0.298095703125,0.144775390625
1534604412.70.968017578125,-0.296875,0.141357421875
1534604412.70.970458984375,-0.297607421875,0.13623046875
1534604412.70.972900390625,-0.301513671875,0.1376953125
1534604412.70.97021484375,-0.300537109375,0.139892578125
1534604412.70.969482421875,-0.301513671875,0.140869140625
1534604412.70.972412109375,-0.297119140625,0.143310546875
1534604412.710.97412109375,-0.296630859375,0.142578125
1534604412.710.967041015625,-0.29833984375,0.143798828125
1534604412.710.96923828125,-0.2978515625,0.1337890625
1534604412.710.965576171875,-0.3017578125,0.139404296875
1534604412.710.969482421875,-0.29638671875,0.13720703125
1534604412.710.96875,-0.298583984375,0.138427734375
1534604412.720.96533203125,-0.298828125,0.142578125
1534604412.720.9697265625,-0.3017578125,0.13671875
1534604412.720.967041015625,-0.3017578125,0.136474609375
1534604412.720.9658203125,-0.298095703125,0.143798828125
1534604412.720.97119140625,-0.299560546875,0.133544921875
1534604412.730.97119140625,-0.299560546875,0.147216796875
1534604412.730.96875,-0.30126953125,0.13818359375
1534604412.730.965576171875,-0.301513671875,0.140380859375
1534604412.730.968017578125,-0.300048828125,0.138427734375
1534604412.730.9677734375,-0.301025390625,0.13671875
1534604412.730.968505859375,-0.30078125,0.146728515625
1534604412.740.967529296875,-0.302001953125,0.144775390625
1534604412.740.967041015625,-0.302734375,0.14208984375
1534604412.740.970703125,-0.302001953125,0.139892578125
1534604412.750.969482421875,-0.30126953125,0.13916015625
1534604412.750.97021484375,-0.29736328125,0.141357421875
1534604412.750.970703125,-0.29833984375,0.144775390625
1534604412.750.967529296875,-0.301025390625,0.13720703125
1534604412.750.966796875,-0.30078125,0.138671875
1534604412.760.969482421875,-0.30224609375,0.14208984375
1534604412.760.969970703125,-0.302490234375,0.141357421875
1534604412.760.965576171875,-0.29931640625,0.142333984375
1534604412.760.96875,-0.301025390625,0.13818359375
1534604412.760.970458984375,-0.30029296875,0.1357421875
1534604412.760.967041015625,-0.304443359375,0.140869140625
1534604412.760.966796875,-0.303955078125,0.14208984375
1534604412.770.965576171875,-0.302978515625,0.144287109375
1534604412.770.970458984375,-0.299072265625,0.13232421875
1534604412.770.970947265625,-0.30078125,0.1318359375
1534604412.770.9697265625,-0.3017578125,0.136474609375
1534604412.770.972412109375,-0.3017578125,0.134765625
1534604412.770.96728515625,-0.300048828125,0.140380859375
1534604412.770.968017578125,-0.30029296875,0.1396484375
1534604412.780.966796875,-0.300537109375,0.136474609375
1534604412.780.973388671875,-0.3017578125,0.13916015625
1534604412.780.971923828125,-0.30029296875,0.142578125
1534604412.780.968994140625,-0.300048828125,0.13916015625
1534604412.780.968994140625,-0.301513671875,0.138671875
1534604412.780.9716796875,-0.302001953125,0.138671875
1534604412.790.968994140625,-0.30029296875,0.13671875
1534604412.790.969482421875,-0.302490234375,0.1357421875
1534604412.790.970703125,-0.301513671875,0.1416015625
1534604412.790.9677734375,-0.302001953125,0.141845703125
1534604412.790.970703125,-0.299560546875,0.1435546875
1534604412.790.9697265625,-0.298828125,0.140869140625
1534604412.80.968994140625,-0.298828125,0.1435546875
1534604412.80.97216796875,-0.299072265625,0.14404296875
1534604412.80.96875,-0.3017578125,0.139892578125
1534604412.80.96337890625,-0.2998046875,0.13720703125
1534604412.80.968994140625,-0.298095703125,0.143798828125
1534604412.810.970947265625,-0.30224609375,0.13427734375
1534604412.810.968017578125,-0.29931640625,0.13671875
1534604412.810.967041015625,-0.30078125,0.14111328125
1534604412.810.970703125,-0.304931640625,0.13623046875
1534604412.810.969970703125,-0.300537109375,0.1357421875
1534604412.810.97021484375,-0.298583984375,0.137939453125
1534604412.820.967529296875,-0.298095703125,0.14111328125
1534604412.820.967041015625,-0.30029296875,0.1376953125
1534604412.820.96533203125,-0.29833984375,0.1357421875
1534604412.820.967529296875,-0.299560546875,0.140380859375
1534604412.820.97021484375,-0.299560546875,0.14013671875
1534604412.830.96923828125,-0.297607421875,0.13720703125
1534604412.830.9697265625,-0.2998046875,0.138427734375
1534604412.830.971923828125,-0.299560546875,0.142333984375
1534604412.830.968505859375,-0.301513671875,0.140869140625
1534604412.830.966064453125,-0.298095703125,0.139404296875
1534604412.830.97021484375,-0.3017578125,0.136962890625
1534604412.840.971435546875,-0.299560546875,0.136962890625
1534604412.840.9658203125,-0.30126953125,0.13916015625
1534604412.840.9697265625,-0.30078125,0.137451171875
1534604412.840.96630859375,-0.300537109375,0.139404296875
1534604412.840.966796875,-0.300048828125,0.143310546875
1534604412.840.967529296875,-0.300537109375,0.141845703125
1534604412.850.964111328125,-0.298095703125,0.14111328125
1534604412.850.96533203125,-0.2998046875,0.143798828125
1534604412.850.96826171875,-0.29931640625,0.138916015625
1534604412.850.96875,-0.302001953125,0.142822265625
1534604412.850.970947265625,-0.301025390625,0.143310546875
1534604412.860.970947265625,-0.29931640625,0.143798828125
1534604412.860.970458984375,-0.298095703125,0.134765625
1534604412.860.96875,-0.300537109375,0.136474609375
1534604412.860.96923828125,-0.2998046875,0.145751953125
1534604412.860.967529296875,-0.298583984375,0.142822265625
1534604412.860.96923828125,-0.299560546875,0.136474609375
1534604412.870.972900390625,-0.300537109375,0.141357421875
1534604412.870.97265625,-0.300048828125,0.14111328125
1534604412.870.96923828125,-0.299072265625,0.138916015625
1534604412.870.9677734375,-0.2998046875,0.136962890625
1534604412.870.967041015625,-0.298828125,0.138916015625
1534604412.870.96826171875,-0.302001953125,0.142333984375
1534604412.870.966796875,-0.29638671875,0.14501953125
1534604412.880.96826171875,-0.300537109375,0.1376953125
1534604412.880.96923828125,-0.302490234375,0.13916015625
1534604412.880.969482421875,-0.3037109375,0.1396484375
1534604412.890.968994140625,-0.301513671875,0.143310546875
1534604412.890.968505859375,-0.30126953125,0.139404296875
1534604412.890.96875,-0.3037109375,0.139404296875
1534604412.890.968994140625,-0.301025390625,0.136474609375
1534604412.890.9697265625,-0.30029296875,0.138671875
1534604412.890.97119140625,-0.301513671875,0.13623046875
1534604412.90.97265625,-0.3017578125,0.13525390625
1534604412.90.9677734375,-0.30126953125,0.139404296875
1534604412.90.97119140625,-0.301513671875,0.13720703125
1534604412.90.971435546875,-0.30078125,0.138427734375
1534604412.90.9697265625,-0.29541015625,0.140380859375
1534604412.90.96875,-0.29931640625,0.135009765625
1534604412.90.9677734375,-0.298095703125,0.134521484375
1534604412.910.968994140625,-0.30029296875,0.135498046875
1534604412.910.969482421875,-0.301025390625,0.142333984375
1534604412.910.9677734375,-0.30224609375,0.138916015625
1534604412.910.96826171875,-0.300048828125,0.1357421875
1534604412.910.9697265625,-0.298583984375,0.138916015625
1534604412.910.966552734375,-0.303466796875,0.13916015625
1534604412.910.96826171875,-0.30517578125,0.134765625
1534604412.920.965087890625,-0.29833984375,0.13330078125
1534604412.920.968017578125,-0.298828125,0.138916015625
1534604412.920.9697265625,-0.299560546875,0.13720703125
1534604412.920.969970703125,-0.302734375,0.13720703125
1534604412.920.968505859375,-0.29931640625,0.139892578125
1534604412.920.96630859375,-0.3017578125,0.1376953125
1534604412.920.969970703125,-0.302001953125,0.13916015625
1534604412.930.966796875,-0.299072265625,0.144775390625
1534604412.930.970703125,-0.29833984375,0.145751953125
1534604412.930.96875,-0.29736328125,0.134765625
1534604412.930.96923828125,-0.29833984375,0.137451171875
1534604412.930.962890625,-0.298583984375,0.13818359375
1534604412.930.96337890625,-0.30224609375,0.141845703125
1534604412.930.971435546875,-0.302001953125,0.138427734375
1534604412.940.971923828125,-0.30322265625,0.140625
1534604412.940.9677734375,-0.29736328125,0.1376953125
1534604412.940.966064453125,-0.295166015625,0.14111328125
1534604412.940.971435546875,-0.297607421875,0.136962890625
1534604412.940.97119140625,-0.297119140625,0.138671875
1534604412.940.96923828125,-0.299560546875,0.138671875
1534604412.950.9716796875,-0.302001953125,0.140869140625
1534604412.950.96826171875,-0.29931640625,0.142578125
1534604412.950.969970703125,-0.293701171875,0.140625
1534604412.950.968994140625,-0.298095703125,0.1416015625
1534604412.950.969482421875,-0.30126953125,0.1376953125
1534604412.960.96923828125,-0.303466796875,0.13916015625
1534604412.960.96875,-0.29833984375,0.138916015625
1534604412.960.96826171875,-0.301025390625,0.14111328125
1534604412.960.96875,-0.298583984375,0.142822265625
1534604412.970.969482421875,-0.299560546875,0.14013671875
1534604412.970.969970703125,-0.29736328125,0.13427734375
1534604412.970.972900390625,-0.30029296875,0.1416015625
1534604412.970.972900390625,-0.298583984375,0.136474609375
1534604412.970.965576171875,-0.2998046875,0.138916015625
1534604412.980.969970703125,-0.3056640625,0.139892578125
1534604412.980.967041015625,-0.298095703125,0.137939453125
1534604412.980.969970703125,-0.298828125,0.1396484375
1534604412.980.974365234375,-0.297119140625,0.13427734375
1534604412.980.9736328125,-0.30078125,0.135986328125
1534604412.980.972412109375,-0.302978515625,0.137939453125
1534604412.980.966796875,-0.299560546875,0.138916015625
1534604412.990.967529296875,-0.298583984375,0.136962890625
1534604412.990.970703125,-0.30126953125,0.14208984375
1534604412.990.9697265625,-0.30078125,0.13818359375
1534604412.990.967041015625,-0.3037109375,0.142333984375
1534604412.990.96435546875,-0.304443359375,0.14599609375
1534604412.990.9638671875,-0.30517578125,0.149169921875
1534604412.990.967529296875,-0.30078125,0.1396484375
1534604412.990.966552734375,-0.298583984375,0.139404296875
1534604413.00.968505859375,-0.30029296875,0.13525390625
1534604413.00.966552734375,-0.30126953125,0.136474609375
1534604413.00.96533203125,-0.302001953125,0.137451171875
1534604413.00.9658203125,-0.302001953125,0.14208984375
1534604413.00.968505859375,-0.302001953125,0.140625
1534604413.00.971435546875,-0.30126953125,0.135009765625
1534604413.00.96533203125,-0.299560546875,0.134765625
1534604413.010.967041015625,-0.29931640625,0.136962890625
1534604413.010.96923828125,-0.30029296875,0.141845703125
1534604413.010.969482421875,-0.298828125,0.13916015625
1534604413.010.9697265625,-0.300048828125,0.138671875
1534604413.010.969482421875,-0.29541015625,0.1416015625
1534604413.010.970703125,-0.3017578125,0.134033203125
1534604413.020.970703125,-0.302001953125,0.13818359375
1534604413.020.9677734375,-0.302490234375,0.140869140625
1534604413.020.9677734375,-0.30126953125,0.142822265625
1534604413.020.970458984375,-0.299072265625,0.1416015625
1534604413.020.966796875,-0.30224609375,0.130859375
1534604413.030.9677734375,-0.298828125,0.13818359375
1534604413.030.965576171875,-0.298828125,0.138427734375
1534604413.030.97119140625,-0.2998046875,0.139404296875
1534604413.030.970703125,-0.300537109375,0.14453125
1534604413.030.96826171875,-0.29736328125,0.13916015625
1534604413.030.966552734375,-0.299560546875,0.140869140625
1534604413.030.96875,-0.300537109375,0.14208984375
1534604413.040.96826171875,-0.29931640625,0.1376953125
1534604413.040.966552734375,-0.298095703125,0.141357421875
1534604413.050.96533203125,-0.30029296875,0.12890625
1534604413.050.967041015625,-0.29638671875,0.137451171875
1534604413.050.965087890625,-0.29833984375,0.14111328125
1534604413.050.969970703125,-0.30126953125,0.14453125
1534604413.050.96826171875,-0.30078125,0.146728515625
1534604413.050.96923828125,-0.299072265625,0.136962890625
1534604413.050.970947265625,-0.30126953125,0.137939453125
1534604413.060.968017578125,-0.30322265625,0.139404296875
1534604413.060.97021484375,-0.301513671875,0.140380859375
1534604413.060.96630859375,-0.30224609375,0.14453125
1534604413.060.966552734375,-0.30224609375,0.142578125
1534604413.060.9697265625,-0.2978515625,0.138671875
1534604413.060.97021484375,-0.298095703125,0.14208984375
1534604413.060.972412109375,-0.29931640625,0.14453125
1534604413.070.968017578125,-0.301025390625,0.14453125
1534604413.070.96630859375,-0.30126953125,0.140869140625
1534604413.070.965576171875,-0.298095703125,0.1396484375
1534604413.070.968505859375,-0.299560546875,0.14111328125
1534604413.070.96826171875,-0.29443359375,0.138671875
1534604413.070.969482421875,-0.297119140625,0.14306640625
1534604413.070.96826171875,-0.296630859375,0.139404296875
1534604413.080.96728515625,-0.296142578125,0.135009765625
1534604413.080.96484375,-0.301513671875,0.13916015625
