CSV format: Accelerometer x value, acclerometer y value, accelerometer z value, gyroscope x value, gyroscope y value, gyroscope z value
Sample frequency: 100Hz
1534594026.910.942626953125,-0.4033203125,-0.08642578125,1.0986328125,-0.00762939453125,-1.25885009766
1534594026.910.94091796875,-0.399658203125,-0.091796875,1.09100341797,0.709533691406,-0.8544921875
1534594026.910.937744140625,-0.39794921875,-0.078857421875,1.21307373047,0.312805175781,-1.02233886719
1534594026.910.939208984375,-0.3994140625,-0.086181640625,1.50299072266,0.411987304688,-0.534057617188
1534594026.920.9384765625,-0.3994140625,-0.0830078125,1.69372558594,0.556945800781,-0.358581542969
1534594026.920.940185546875,-0.400390625,-0.081787109375,1.93023681641,0.717163085938,-0.0839233398438
1534594026.920.935791015625,-0.395751953125,-0.0791015625,1.56402587891,0.656127929688,0.205993652344
1534594026.920.9404296875,-0.398681640625,-0.087890625,1.68609619141,0.679016113281,0.419616699219
1534594026.930.936767578125,-0.397216796875,-0.086669921875,1.87683105469,0.648498535156,0.167846679688
1534594026.930.935546875,-0.3984375,-0.0849609375,1.61743164062,0.801086425781,0.213623046875
1534594026.930.939208984375,-0.399169921875,-0.083740234375,1.78527832031,0.91552734375,0.160217285156
1534594026.930.930908203125,-0.395263671875,-0.07421875,1.65557861328,0.587463378906,0.1220703125
1534594026.940.935546875,-0.3974609375,-0.07958984375,1.61743164062,0.625610351562,-0.0152587890625
1534594026.940.93603515625,-0.40087890625,-0.078125,1.46484375,0.541687011719,-0.328063964844
1534594026.940.937744140625,-0.399169921875,-0.0771484375,1.41143798828,0.816345214844,-0.717163085938
1534594026.950.9345703125,-0.396484375,-0.07568359375,1.31988525391,0.236511230469,-0.823974609375
1534594026.950.940673828125,-0.395751953125,-0.083984375,1.25122070312,0.79345703125,-1.24359130859
1534594026.950.93701171875,-0.39892578125,-0.082275390625,1.14440917969,0.236511230469,-1.26647949219
1534594026.960.939697265625,-0.400634765625,-0.0810546875,1.29699707031,0.587463378906,-1.21307373047
1534594026.960.94287109375,-0.39990234375,-0.079833984375,1.31988525391,0.343322753906,-1.07574462891
1534594026.960.93994140625,-0.402099609375,-0.080078125,1.33514404297,0.511169433594,-0.999450683594
1534594026.960.936767578125,-0.4013671875,-0.0869140625,1.28173828125,0.335693359375,-0.48828125
1534594026.970.938720703125,-0.402587890625,-0.0869140625,1.5869140625,0.709533691406,-0.450134277344
1534594026.970.939697265625,-0.40087890625,-0.076171875,1.36566162109,0.617980957031,-0.282287597656
1534594026.970.93798828125,-0.39990234375,-0.083740234375,1.92260742188,0.328063964844,0.465393066406
1534594026.970.939453125,-0.396484375,-0.0810546875,1.80053710938,0.801086425781,0.144958496094
1534594026.980.934814453125,-0.40087890625,-0.0810546875,1.81579589844,0.869750976562,0.358581542969
1534594026.980.93505859375,-0.399658203125,-0.083251953125,1.74713134766,0.747680664062,0.534057617188
1534594026.980.932373046875,-0.398681640625,-0.075927734375,1.60980224609,0.770568847656,0.18310546875
1534594026.990.93310546875,-0.401123046875,-0.081298828125,1.73950195312,0.587463378906,-0.030517578125
1534594026.990.931884765625,-0.39794921875,-0.0830078125,1.43432617188,0.602722167969,-0.282287597656
1534594026.990.937255859375,-0.400146484375,-0.078369140625,1.48010253906,0.541687011719,-0.740051269531
1534594027.00.93359375,-0.4033203125,-0.083984375,1.3427734375,0.373840332031,-0.968933105469
1534594027.00.931640625,-0.403076171875,-0.08837890625,1.35040283203,0.267028808594,-1.09100341797
1534594027.00.935791015625,-0.402099609375,-0.07861328125,1.02996826172,0.6103515625,-1.06048583984
1534594027.010.93701171875,-0.397705078125,-0.0791015625,1.28173828125,0.312805175781,-1.31225585938
1534594027.010.936279296875,-0.401123046875,-0.080078125,1.09100341797,0.411987304688,-1.12915039062
1534594027.010.941162109375,-0.400146484375,-0.0849609375,1.3427734375,0.503540039062,-0.778198242188
1534594027.010.939453125,-0.396728515625,-0.0830078125,1.38854980469,0.335693359375,-0.480651855469
1534594027.020.93701171875,-0.401123046875,-0.083740234375,1.31225585938,0.633239746094,-0.534057617188
1534594027.020.938232421875,-0.39794921875,-0.084716796875,1.60980224609,0.625610351562,-0.320434570312
1534594027.020.9365234375,-0.400390625,-0.087158203125,1.64794921875,0.823974609375,0.030517578125
1534594027.030.937255859375,-0.399658203125,-0.08544921875,1.87683105469,0.877380371094,0.091552734375
1534594027.030.93603515625,-0.39892578125,-0.073486328125,1.81579589844,0.877380371094,0.030517578125
1534594027.030.93359375,-0.396728515625,-0.079833984375,1.90734863281,0.747680664062,0.465393066406
1534594027.040.935302734375,-0.3984375,-0.07373046875,1.88446044922,0.762939453125,0.297546386719
1534594027.040.93359375,-0.3974609375,-0.07421875,1.78527832031,0.930786132812,0.091552734375
1534594027.040.93603515625,-0.396240234375,-0.080078125,1.60217285156,0.556945800781,-0.0534057617188
1534594027.040.938720703125,-0.3974609375,-0.071044921875,1.46484375,0.48828125,-0.350952148438
1534594027.050.936279296875,-0.3974609375,-0.075927734375,1.53350830078,0.495910644531,-0.747680664062
1534594027.050.941650390625,-0.3984375,-0.073974609375,1.37329101562,0.54931640625,-0.999450683594
1534594027.050.9375,-0.397216796875,-0.078125,1.19018554688,0.0686645507812,-1.12915039062
1534594027.050.94189453125,-0.402099609375,-0.075927734375,1.31225585938,0.396728515625,-1.35040283203
1534594027.060.941650390625,-0.39990234375,-0.0771484375,0.999450683594,0.381469726562,-1.25885009766
1534594027.060.939208984375,-0.3984375,-0.080810546875,1.23596191406,0.328063964844,-1.25122070312
1534594027.060.94287109375,-0.399169921875,-0.0859375,1.12915039062,0.686645507812,-1.05285644531
1534594027.070.943359375,-0.398193359375,-0.08544921875,1.54876708984,0.480651855469,-1.14440917969
1534594027.070.93701171875,-0.3955078125,-0.078369140625,1.35040283203,0.335693359375,-0.526428222656
1534594027.070.940673828125,-0.397705078125,-0.07958984375,1.54113769531,0.747680664062,-0.343322753906
1534594027.070.9375,-0.398193359375,-0.077392578125,1.708984375,0.579833984375,0.06103515625
1534594027.080.93994140625,-0.396484375,-0.08251953125,1.73187255859,0.625610351562,0.137329101562
1534594027.080.939697265625,-0.3974609375,-0.080810546875,1.96838378906,0.640869140625,0.442504882812
1534594027.090.93603515625,-0.39794921875,-0.079833984375,1.93786621094,0.762939453125,0.480651855469
1534594027.090.93115234375,-0.39794921875,-0.080322265625,1.82342529297,0.740051269531,0.350952148438
1534594027.090.934326171875,-0.39990234375,-0.08349609375,1.64031982422,0.717163085938,0.198364257812
1534594027.090.9326171875,-0.40380859375,-0.079833984375,1.76239013672,0.526428222656,0.0381469726562
1534594027.10.93310546875,-0.402587890625,-0.07958984375,1.70135498047,0.900268554688,-0.30517578125
1534594027.10.935546875,-0.397705078125,-0.075439453125,1.40380859375,0.686645507812,-0.625610351562
1534594027.10.933837890625,-0.40185546875,-0.07666015625,1.50299072266,0.42724609375,-0.701904296875
1534594027.110.931396484375,-0.402587890625,-0.081298828125,1.49536132812,0.434875488281,-0.694274902344
1534594027.110.93603515625,-0.399658203125,-0.076904296875,1.48010253906,0.152587890625,-1.26647949219
1534594027.110.939697265625,-0.398681640625,-0.080078125,1.19018554688,0.411987304688,-1.33514404297
1534594027.110.933837890625,-0.4013671875,-0.0810546875,1.26647949219,0.396728515625,-1.19781494141
1534594027.120.939453125,-0.405029296875,-0.08251953125,1.42669677734,0.389099121094,-0.984191894531
1534594027.120.9404296875,-0.4033203125,-0.087890625,1.24359130859,0.3662109375,-1.07574462891
1534594027.120.9375,-0.403564453125,-0.090087890625,1.54876708984,0.495910644531,-0.572204589844
1534594027.120.94189453125,-0.40234375,-0.082275390625,1.43432617188,0.358581542969,-0.411987304688
1534594027.130.936279296875,-0.40185546875,-0.08251953125,1.66320800781,0.686645507812,-0.267028808594
1534594027.130.935791015625,-0.40380859375,-0.085205078125,1.45721435547,0.701904296875,-0.00762939453125
1534594027.130.937255859375,-0.404541015625,-0.084228515625,1.97601318359,0.785827636719,0.335693359375
1534594027.140.932861328125,-0.404296875,-0.08251953125,1.77001953125,0.923156738281,0.167846679688
1534594027.140.93505859375,-0.40185546875,-0.082763671875,1.89208984375,0.900268554688,0.228881835938
1534594027.140.930908203125,-0.401123046875,-0.08056640625,1.86920166016,0.839233398438,0.335693359375
1534594027.140.934814453125,-0.40625,-0.0830078125,1.97601318359,0.930786132812,0.00762939453125
1534594027.150.928955078125,-0.39990234375,-0.085205078125,1.77001953125,0.602722167969,0.0534057617188
1534594027.150.930908203125,-0.406005859375,-0.080322265625,1.65557861328,0.54931640625,-0.129699707031
1534594027.150.928466796875,-0.3994140625,-0.087158203125,1.67846679688,0.640869140625,-0.396728515625
1534594027.150.9345703125,-0.401611328125,-0.077880859375,1.45721435547,0.473022460938,-0.602722167969
1534594027.160.9345703125,-0.4013671875,-0.080322265625,1.38092041016,0.289916992188,-0.938415527344
1534594027.160.932861328125,-0.401611328125,-0.0830078125,1.33514404297,0.30517578125,-1.26647949219
1534594027.160.93359375,-0.400390625,-0.082275390625,1.21307373047,0.572204589844,-0.968933105469
1534594027.170.935791015625,-0.40185546875,-0.07958984375,1.27410888672,0.457763671875,-1.54876708984
1534594027.170.936767578125,-0.400146484375,-0.080322265625,1.17492675781,0.030517578125,-1.20544433594
1534594027.170.938720703125,-0.3994140625,-0.0869140625,1.36566162109,0.541687011719,-1.30462646484
1534594027.170.938720703125,-0.3984375,-0.086669921875,1.27410888672,0.534057617188,-0.823974609375
1534594027.180.938232421875,-0.3984375,-0.08154296875,1.42669677734,0.312805175781,-0.930786132812
1534594027.180.936279296875,-0.400146484375,-0.085693359375,1.36566162109,0.617980957031,-0.770568847656
1534594027.180.93896484375,-0.3955078125,-0.081298828125,1.29699707031,0.663757324219,-0.67138671875
1534594027.180.941650390625,-0.396484375,-0.08251953125,1.78527832031,0.564575195312,-0.404357910156
1534594027.190.9404296875,-0.394775390625,-0.07861328125,1.5869140625,0.823974609375,-0.259399414062
1534594027.190.941162109375,-0.397705078125,-0.078125,1.80053710938,0.579833984375,0.167846679688
1534594027.190.939453125,-0.399658203125,-0.075927734375,1.85394287109,0.816345214844,0.0
1534594027.20.9384765625,-0.3984375,-0.074951171875,1.89208984375,0.923156738281,0.160217285156
1534594027.20.93798828125,-0.3984375,-0.080322265625,1.80053710938,0.617980957031,-0.137329101562
1534594027.210.935302734375,-0.395751953125,-0.07861328125,1.81579589844,0.656127929688,-0.18310546875
1534594027.210.93310546875,-0.39794921875,-0.075927734375,1.48773193359,0.396728515625,-0.640869140625
1534594027.210.934814453125,-0.39697265625,-0.076904296875,1.35803222656,0.686645507812,-0.495910644531
1534594027.210.934326171875,-0.39599609375,-0.07861328125,1.54876708984,0.404357910156,-0.595092773438
1534594027.220.935791015625,-0.3984375,-0.0771484375,1.38092041016,0.48828125,-0.984191894531
1534594027.220.93896484375,-0.399658203125,-0.075927734375,1.49536132812,0.328063964844,-0.762939453125
1534594027.220.938232421875,-0.39697265625,-0.0810546875,1.07574462891,0.381469726562,-0.8544921875
1534594027.220.94140625,-0.397216796875,-0.0810546875,1.28936767578,0.511169433594,-0.953674316406
1534594027.230.937255859375,-0.400634765625,-0.079345703125,1.35040283203,0.556945800781,-0.79345703125
1534594027.230.93701171875,-0.398193359375,-0.080322265625,1.12152099609,0.274658203125,-0.778198242188
1534594027.230.938232421875,-0.3994140625,-0.080322265625,1.51062011719,0.595092773438,-0.595092773438
1534594027.230.93701171875,-0.39892578125,-0.08447265625,1.47247314453,0.419616699219,-0.3662109375
1534594027.240.9404296875,-0.400634765625,-0.081787109375,1.65557861328,0.48828125,-0.350952148438
1534594027.240.935302734375,-0.404296875,-0.077880859375,1.65557861328,0.640869140625,-0.167846679688
1534594027.240.9365234375,-0.40185546875,-0.0830078125,1.70135498047,0.686645507812,-0.457763671875
1534594027.250.935546875,-0.399658203125,-0.080078125,1.49536132812,0.625610351562,-0.0762939453125
1534594027.250.93603515625,-0.402099609375,-0.08349609375,1.48773193359,0.457763671875,-0.228881835938
1534594027.250.936279296875,-0.399658203125,-0.082763671875,1.73187255859,0.778198242188,0.1220703125
1534594027.250.935791015625,-0.3984375,-0.089111328125,1.61743164062,0.411987304688,-0.0457763671875
1534594027.260.934814453125,-0.39599609375,-0.081787109375,1.71661376953,0.534057617188,0.0839233398438
1534594027.260.93212890625,-0.400390625,-0.079345703125,1.60217285156,0.923156738281,-0.06103515625
1534594027.260.93310546875,-0.401611328125,-0.08349609375,1.66320800781,0.732421875,-0.18310546875
1534594027.260.93603515625,-0.404296875,-0.07763671875,1.44195556641,0.526428222656,-0.328063964844
1534594027.270.93505859375,-0.39697265625,-0.086669921875,1.77001953125,0.511169433594,-0.480651855469
1534594027.270.936767578125,-0.402587890625,-0.083740234375,1.59454345703,0.694274902344,-0.625610351562
1534594027.270.93505859375,-0.397216796875,-0.0771484375,1.29699707031,0.312805175781,-0.816345214844
1534594027.270.9404296875,-0.397705078125,-0.0810546875,1.25885009766,0.312805175781,-0.961303710938
1534594027.280.933837890625,-0.403564453125,-0.08203125,1.41143798828,0.701904296875,-1.25885009766
1534594027.280.93505859375,-0.404052734375,-0.082275390625,1.48773193359,0.709533691406,-0.991821289062
1534594027.280.940185546875,-0.401123046875,-0.081298828125,1.27410888672,0.495910644531,-0.862121582031
1534594027.290.937744140625,-0.4013671875,-0.072265625,1.25885009766,0.656127929688,-0.831604003906
1534594027.290.9404296875,-0.405029296875,-0.081298828125,1.49536132812,0.297546386719,-0.892639160156
1534594027.290.941650390625,-0.403076171875,-0.08251953125,1.38854980469,0.251770019531,-0.701904296875
1534594027.290.938720703125,-0.40087890625,-0.07958984375,1.51062011719,0.755310058594,-0.373840332031
1534594027.30.9443359375,-0.400390625,-0.081298828125,1.35040283203,0.709533691406,-0.480651855469
1534594027.30.939208984375,-0.40380859375,-0.0791015625,1.85394287109,0.54931640625,-0.312805175781
1534594027.30.946044921875,-0.398681640625,-0.0849609375,1.54876708984,0.686645507812,-0.289916992188
1534594027.30.939208984375,-0.40087890625,-0.083984375,1.72424316406,0.450134277344,-0.0228881835938
1534594027.310.937744140625,-0.402587890625,-0.07470703125,1.54113769531,0.923156738281,-0.0152587890625
1534594027.310.93212890625,-0.3984375,-0.08056640625,1.67846679688,0.564575195312,-0.0152587890625
1534594027.310.937744140625,-0.3974609375,-0.08642578125,1.77001953125,0.839233398438,0.175476074219
1534594027.320.937255859375,-0.400146484375,-0.07861328125,1.69372558594,0.572204589844,-0.0839233398438
1534594027.320.929931640625,-0.3994140625,-0.077880859375,1.72424316406,0.534057617188,0.0839233398438
1534594027.320.93701171875,-0.40185546875,-0.080810546875,1.60980224609,0.312805175781,-0.251770019531
1534594027.320.93408203125,-0.401611328125,-0.08154296875,1.57928466797,0.541687011719,-0.511169433594
1534594027.330.934326171875,-0.39892578125,-0.078125,1.55639648438,0.518798828125,-0.6103515625
1534594027.330.93603515625,-0.397216796875,-0.07958984375,1.220703125,0.633239746094,-0.534057617188
1534594027.330.933349609375,-0.399658203125,-0.07958984375,1.38854980469,0.0534057617188,-0.640869140625
1534594027.340.932373046875,-0.400634765625,-0.08642578125,1.38092041016,0.617980957031,-0.892639160156
1534594027.340.9345703125,-0.402587890625,-0.074951171875,1.41906738281,0.48828125,-1.12152099609
1534594027.340.937255859375,-0.399658203125,-0.08203125,1.48010253906,0.579833984375,-0.968933105469
1534594027.350.941650390625,-0.39990234375,-0.079833984375,1.15966796875,0.54931640625,-0.686645507812
1534594027.350.93896484375,-0.404296875,-0.078857421875,1.22833251953,0.503540039062,-1.00708007812
1534594027.350.938232421875,-0.401611328125,-0.0830078125,1.51062011719,0.633239746094,-0.991821289062
1534594027.350.9384765625,-0.3974609375,-0.083740234375,1.44958496094,0.572204589844,-0.801086425781
1534594027.360.941162109375,-0.40185546875,-0.087890625,1.35040283203,0.473022460938,-0.930786132812
1534594027.360.938232421875,-0.39892578125,-0.0859375,1.48010253906,0.236511230469,-0.617980957031
1534594027.360.945556640625,-0.3994140625,-0.08154296875,1.3427734375,0.679016113281,-0.67138671875
1534594027.360.9384765625,-0.40087890625,-0.080810546875,1.69372558594,0.335693359375,-0.396728515625
1534594027.370.941650390625,-0.40087890625,-0.077880859375,1.8310546875,0.656127929688,-0.495910644531
1534594027.370.9384765625,-0.399169921875,-0.0859375,1.68609619141,0.572204589844,-0.091552734375
1534594027.370.9365234375,-0.397216796875,-0.0849609375,1.57928466797,0.541687011719,-0.1220703125
1534594027.370.943603515625,-0.402099609375,-0.08349609375,1.59454345703,0.862121582031,-0.0839233398438
1534594027.380.9423828125,-0.397216796875,-0.083984375,1.73950195312,0.541687011719,0.0534057617188
1534594027.380.935302734375,-0.3984375,-0.077880859375,1.69372558594,0.602722167969,0.30517578125
1534594027.380.9326171875,-0.396484375,-0.08056640625,1.61743164062,1.00708007812,-0.137329101562
1534594027.390.93115234375,-0.40380859375,-0.08544921875,1.70135498047,0.526428222656,0.0228881835938
1534594027.390.937744140625,-0.400390625,-0.0810546875,1.67083740234,0.289916992188,-0.328063964844
1534594027.390.9326171875,-0.401123046875,-0.07421875,1.73950195312,0.564575195312,-0.411987304688
1534594027.390.93505859375,-0.398681640625,-0.08349609375,1.44195556641,0.526428222656,-0.48828125
1534594027.40.93701171875,-0.40283203125,-0.089599609375,1.64794921875,0.694274902344,-0.358581542969
1534594027.40.934814453125,-0.403564453125,-0.081787109375,1.53350830078,0.732421875,-0.457763671875
1534594027.40.931640625,-0.40283203125,-0.08203125,1.54113769531,0.3662109375,-0.419616699219
1534594027.40.93115234375,-0.400146484375,-0.078369140625,1.41906738281,0.770568847656,-0.54931640625
1534594027.410.935302734375,-0.406982421875,-0.082275390625,1.23596191406,0.244140625,-0.709533691406
1534594027.410.937255859375,-0.404541015625,-0.07568359375,1.3427734375,0.396728515625,-0.648498535156
1534594027.410.933837890625,-0.403076171875,-0.083251953125,1.52587890625,0.663757324219,-0.79345703125
1534594027.410.94140625,-0.4013671875,-0.0810546875,1.19018554688,0.251770019531,-0.900268554688
1534594027.420.940673828125,-0.398193359375,-0.078125,1.31225585938,0.411987304688,-0.587463378906
1534594027.420.938232421875,-0.40234375,-0.083251953125,1.51062011719,0.602722167969,-0.770568847656
1534594027.420.939453125,-0.396728515625,-0.080078125,1.31988525391,0.518798828125,-0.602722167969
1534594027.420.938232421875,-0.401123046875,-0.077880859375,1.48773193359,0.267028808594,-0.495910644531
1534594027.430.932373046875,-0.398681640625,-0.0830078125,1.50299072266,0.79345703125,-0.419616699219
1534594027.430.93408203125,-0.400390625,-0.0810546875,1.75476074219,0.495910644531,-0.18310546875
1534594027.430.941650390625,-0.3984375,-0.076171875,1.80816650391,0.404357910156,-0.167846679688
1534594027.440.9345703125,-0.399169921875,-0.083740234375,1.60980224609,0.823974609375,-0.167846679688
1534594027.440.934326171875,-0.398193359375,-0.079833984375,1.64031982422,0.617980957031,0.0762939453125
1534594027.440.9375,-0.397216796875,-0.080810546875,1.54113769531,0.724792480469,-0.221252441406
1534594027.440.931884765625,-0.399169921875,-0.08203125,1.60980224609,0.770568847656,-0.404357910156
1534594027.450.93359375,-0.39794921875,-0.08056640625,1.62506103516,0.694274902344,-0.297546386719
1534594027.450.934814453125,-0.3955078125,-0.086181640625,1.61743164062,0.717163085938,-0.328063964844
1534594027.450.934814453125,-0.39892578125,-0.078369140625,1.76239013672,0.518798828125,-0.404357910156
1534594027.460.93212890625,-0.3974609375,-0.076416015625,1.40380859375,0.587463378906,-0.42724609375
1534594027.460.93212890625,-0.39892578125,-0.08447265625,1.44195556641,0.541687011719,-0.564575195312
1534594027.470.9404296875,-0.398193359375,-0.084228515625,1.28936767578,0.625610351562,-0.724792480469
1534594027.470.93896484375,-0.398681640625,-0.078857421875,1.0986328125,0.152587890625,-1.06811523438
1534594027.470.940673828125,-0.3974609375,-0.08056640625,1.0986328125,0.511169433594,-0.640869140625
1534594027.470.9375,-0.3984375,-0.084228515625,1.19781494141,0.30517578125,-0.938415527344
1534594027.480.941162109375,-0.3974609375,-0.08544921875,1.35040283203,0.473022460938,-0.747680664062
1534594027.480.9423828125,-0.395751953125,-0.089599609375,1.56402587891,0.30517578125,-0.6103515625
1534594027.480.944580078125,-0.397216796875,-0.084228515625,1.5869140625,0.923156738281,-0.457763671875
1534594027.490.939697265625,-0.400634765625,-0.07958984375,1.56402587891,0.42724609375,-0.526428222656
1534594027.490.938720703125,-0.396728515625,-0.087158203125,1.59454345703,0.778198242188,-0.396728515625
1534594027.490.9404296875,-0.40087890625,-0.08251953125,1.48010253906,0.91552734375,-0.396728515625
1534594027.50.9404296875,-0.396484375,-0.080322265625,1.88446044922,0.6103515625,-0.106811523438
1534594027.50.93505859375,-0.397216796875,-0.083740234375,1.66320800781,0.686645507812,-0.236511230469
1534594027.50.9345703125,-0.397216796875,-0.08349609375,1.63269042969,0.79345703125,-0.114440917969
1534594027.50.933837890625,-0.39794921875,-0.081787109375,1.67083740234,0.785827636719,-0.0991821289062
1534594027.510.9384765625,-0.3994140625,-0.083251953125,1.73187255859,0.839233398438,-0.0228881835938
1534594027.510.93505859375,-0.404541015625,-0.0771484375,1.54113769531,0.633239746094,-0.0762939453125
1534594027.510.933837890625,-0.3994140625,-0.080810546875,1.66320800781,0.564575195312,-0.534057617188
1534594027.510.93798828125,-0.397216796875,-0.078125,1.37329101562,0.389099121094,-0.404357910156
1534594027.520.935791015625,-0.3974609375,-0.08154296875,1.70135498047,0.747680664062,-0.640869140625
1534594027.520.932861328125,-0.400390625,-0.07958984375,1.33514404297,0.373840332031,-0.762939453125
1534594027.520.937255859375,-0.3984375,-0.0732421875,1.41143798828,0.473022460938,-0.732421875
1534594027.530.93212890625,-0.39892578125,-0.07373046875,1.44958496094,0.373840332031,-0.595092773438
1534594027.530.936279296875,-0.403564453125,-0.0849609375,1.35803222656,0.579833984375,-0.816345214844
1534594027.530.935791015625,-0.3984375,-0.080078125,1.07574462891,0.411987304688,-0.862121582031
1534594027.530.941162109375,-0.396728515625,-0.080322265625,1.31988525391,0.564575195312,-0.930786132812
1534594027.540.940185546875,-0.40185546875,-0.07470703125,1.61743164062,0.648498535156,-0.717163085938
1534594027.540.937255859375,-0.400634765625,-0.08154296875,1.46484375,0.785827636719,-0.518798828125
1534594027.540.93994140625,-0.399169921875,-0.07958984375,1.62506103516,0.465393066406,-0.526428222656
1534594027.540.93994140625,-0.399658203125,-0.086181640625,1.67083740234,0.778198242188,-0.396728515625
1534594027.550.93994140625,-0.403564453125,-0.082763671875,1.41143798828,0.503540039062,-0.343322753906
1534594027.550.946044921875,-0.399169921875,-0.079833984375,1.44195556641,0.526428222656,-0.213623046875
1534594027.550.94091796875,-0.401123046875,-0.08251953125,1.60217285156,0.785827636719,-0.213623046875
1534594027.560.935791015625,-0.399658203125,-0.08251953125,1.72424316406,0.762939453125,-0.137329101562
1534594027.570.935302734375,-0.39697265625,-0.08203125,1.47247314453,0.648498535156,-0.350952148438
1534594027.570.92919921875,-0.401123046875,-0.07958984375,1.50299072266,0.724792480469,-0.160217285156
1534594027.570.932373046875,-0.39990234375,-0.077880859375,1.52587890625,0.495910644531,-0.350952148438
1534594027.580.9375,-0.40234375,-0.082275390625,1.85394287109,0.450134277344,-0.396728515625
1534594027.580.9365234375,-0.40087890625,-0.078857421875,1.35040283203,0.541687011719,-0.450134277344
1534594027.580.9375,-0.402099609375,-0.07763671875,1.48010253906,0.343322753906,-0.221252441406
1534594027.580.934814453125,-0.3984375,-0.078125,1.50299072266,0.48828125,-0.518798828125
1534594027.590.93408203125,-0.3994140625,-0.07470703125,1.59454345703,0.396728515625,-0.656127929688
1534594027.590.93505859375,-0.401123046875,-0.0791015625,1.57928466797,0.289916992188,-0.602722167969
1534594027.590.9384765625,-0.3974609375,-0.0732421875,1.38092041016,0.465393066406,-0.656127929688
1534594027.590.940673828125,-0.405029296875,-0.083740234375,1.51062011719,0.465393066406,-0.480651855469
1534594027.60.93798828125,-0.40185546875,-0.090087890625,1.51824951172,0.381469726562,-0.656127929688
1534594027.60.938720703125,-0.40185546875,-0.08349609375,1.42669677734,0.54931640625,-0.251770019531
1534594027.60.935302734375,-0.4013671875,-0.078125,1.88446044922,0.267028808594,-0.328063964844
1534594027.610.94091796875,-0.400390625,-0.080810546875,1.42669677734,0.518798828125,-0.587463378906
1534594027.610.933837890625,-0.396728515625,-0.083740234375,1.76239013672,0.335693359375,-0.343322753906
1534594027.610.93603515625,-0.3994140625,-0.083251953125,1.49536132812,0.518798828125,-0.411987304688
1534594027.610.939453125,-0.400634765625,-0.0849609375,1.71661376953,0.465393066406,0.1220703125
1534594027.620.940185546875,-0.39892578125,-0.078857421875,1.708984375,0.839233398438,-0.18310546875
1534594027.620.936767578125,-0.400146484375,-0.08056640625,1.28936767578,0.724792480469,-0.152587890625
1534594027.620.939208984375,-0.400390625,-0.0791015625,1.82342529297,0.3662109375,0.160217285156
1534594027.620.936279296875,-0.401123046875,-0.080322265625,1.42669677734,0.6103515625,-0.0686645507812
1534594027.630.934326171875,-0.40283203125,-0.080078125,1.46484375,0.434875488281,-0.0228881835938
1534594027.630.940673828125,-0.39892578125,-0.08203125,1.57165527344,0.747680664062,0.0152587890625
1534594027.630.93701171875,-0.39990234375,-0.085693359375,1.57165527344,0.534057617188,-0.137329101562
1534594027.630.937255859375,-0.397705078125,-0.078125,1.37329101562,0.457763671875,-0.396728515625
1534594027.640.93603515625,-0.401123046875,-0.080078125,1.52587890625,0.587463378906,-0.511169433594
1534594027.640.93798828125,-0.39697265625,-0.08349609375,1.35040283203,0.42724609375,-0.450134277344
1534594027.640.9345703125,-0.398193359375,-0.0751953125,1.37329101562,0.473022460938,-0.473022460938
1534594027.650.9375,-0.397705078125,-0.0830078125,1.28173828125,0.541687011719,-0.778198242188
1534594027.650.93359375,-0.399169921875,-0.08056640625,1.38092041016,0.518798828125,-0.3662109375
1534594027.650.93505859375,-0.401611328125,-0.08642578125,1.38092041016,0.633239746094,-0.480651855469
1534594027.650.936279296875,-0.39794921875,-0.080078125,1.19781494141,0.602722167969,-0.534057617188
1534594027.660.936279296875,-0.399169921875,-0.07861328125,1.63269042969,0.358581542969,-0.129699707031
1534594027.660.9326171875,-0.400146484375,-0.079345703125,1.44195556641,0.511169433594,-0.526428222656
1534594027.660.940185546875,-0.400390625,-0.081787109375,1.62506103516,0.274658203125,-0.328063964844
1534594027.660.937744140625,-0.39599609375,-0.079345703125,1.33514404297,0.694274902344,-0.236511230469
1534594027.670.939697265625,-0.39990234375,-0.08251953125,1.56402587891,0.656127929688,-0.320434570312
1534594027.670.933349609375,-0.401611328125,-0.0791015625,1.48010253906,0.579833984375,-0.190734863281
1534594027.670.937744140625,-0.400146484375,-0.080078125,1.12915039062,0.480651855469,-0.213623046875
1534594027.670.938720703125,-0.40380859375,-0.08154296875,1.66320800781,0.419616699219,-0.0991821289062
1534594027.680.93701171875,-0.3974609375,-0.0751953125,1.64031982422,0.709533691406,-0.144958496094
1534594027.680.934326171875,-0.4013671875,-0.08349609375,1.36566162109,0.503540039062,-0.297546386719
1534594027.680.935302734375,-0.396240234375,-0.074462890625,1.48010253906,0.358581542969,-0.320434570312
1534594027.690.9365234375,-0.40234375,-0.0791015625,1.75476074219,0.602722167969,-0.335693359375
1534594027.690.93603515625,-0.39892578125,-0.073974609375,1.43432617188,0.404357910156,-0.373840332031
1534594027.690.940185546875,-0.3984375,-0.080078125,1.69372558594,0.381469726562,-0.236511230469
1534594027.690.93701171875,-0.397705078125,-0.07861328125,1.60217285156,0.595092773438,-0.198364257812
1534594027.70.934814453125,-0.3984375,-0.073974609375,1.59454345703,0.480651855469,-0.625610351562
1534594027.70.93603515625,-0.396728515625,-0.08056640625,1.37329101562,0.587463378906,-0.457763671875
1534594027.70.938232421875,-0.400146484375,-0.0830078125,1.38092041016,0.473022460938,-0.511169433594
1534594027.710.932373046875,-0.39990234375,-0.08349609375,1.39617919922,0.48828125,-0.144958496094
1534594027.710.93505859375,-0.39794921875,-0.0791015625,1.53350830078,0.595092773438,-0.289916992188
1534594027.720.93798828125,-0.396728515625,-0.076904296875,1.38854980469,0.602722167969,-0.343322753906
1534594027.720.93408203125,-0.3994140625,-0.083984375,1.67083740234,0.3662109375,-0.297546386719
1534594027.720.937255859375,-0.3994140625,-0.082275390625,1.39617919922,0.495910644531,-0.473022460938
1534594027.730.937255859375,-0.40185546875,-0.08251953125,1.38092041016,0.587463378906,-0.335693359375
1534594027.730.9365234375,-0.39990234375,-0.078857421875,1.48773193359,0.67138671875,-0.328063964844
1534594027.730.939453125,-0.402099609375,-0.083251953125,1.57165527344,0.404357910156,-0.350952148438
1534594027.730.94140625,-0.401123046875,-0.078857421875,1.39617919922,0.495910644531,0.0152587890625
1534594027.740.934814453125,-0.3974609375,-0.080078125,1.70135498047,0.389099121094,-0.289916992188
1534594027.740.939697265625,-0.39892578125,-0.08251953125,1.30462646484,0.457763671875,-0.572204589844
1534594027.740.934326171875,-0.40185546875,-0.080322265625,1.61743164062,0.564575195312,-0.137329101562
1534594027.740.93505859375,-0.40087890625,-0.0869140625,1.39617919922,0.724792480469,-0.282287597656
1534594027.750.931640625,-0.401611328125,-0.08154296875,1.62506103516,0.419616699219,-0.534057617188
1534594027.750.9365234375,-0.40185546875,-0.08447265625,1.38092041016,0.442504882812,-0.205993652344
1534594027.750.9326171875,-0.40380859375,-0.08349609375,1.54876708984,0.633239746094,-0.389099121094
1534594027.760.934814453125,-0.404052734375,-0.084716796875,1.49536132812,0.503540039062,-0.511169433594
1534594027.760.93798828125,-0.40283203125,-0.0830078125,1.51824951172,0.534057617188,-0.335693359375
1534594027.760.936279296875,-0.39599609375,-0.079345703125,1.42669677734,0.709533691406,-0.343322753906
1534594027.760.93115234375,-0.40087890625,-0.085205078125,1.53350830078,0.221252441406,-0.389099121094
1534594027.770.93701171875,-0.405029296875,-0.088134765625,1.35040283203,0.434875488281,-0.320434570312
1534594027.770.93603515625,-0.40087890625,-0.08251953125,1.61743164062,0.473022460938,-0.579833984375
1534594027.770.93603515625,-0.404052734375,-0.08642578125,1.16729736328,0.30517578125,-0.54931640625
1534594027.770.935546875,-0.406005859375,-0.086181640625,1.60980224609,0.701904296875,-0.480651855469
1534594027.780.932373046875,-0.39990234375,-0.079345703125,1.23596191406,0.350952148438,-0.633239746094
1534594027.780.934814453125,-0.403076171875,-0.088134765625,1.51824951172,0.587463378906,-0.648498535156
1534594027.780.9404296875,-0.401611328125,-0.078369140625,1.30462646484,0.534057617188,-0.54931640625
1534594027.790.9365234375,-0.397705078125,-0.0888671875,1.27410888672,0.312805175781,-0.679016113281
1534594027.790.93408203125,-0.398681640625,-0.082275390625,1.80053710938,0.663757324219,-0.732421875
1534594027.790.93896484375,-0.396240234375,-0.0751953125,1.52587890625,0.297546386719,-0.572204589844
1534594027.790.93603515625,-0.400634765625,-0.078369140625,1.07574462891,0.404357910156,-0.381469726562
1534594027.80.93994140625,-0.3994140625,-0.081298828125,1.48010253906,0.396728515625,-0.3662109375
1534594027.80.939453125,-0.3994140625,-0.08642578125,1.71661376953,0.450134277344,-0.320434570312
1534594027.80.935791015625,-0.3984375,-0.079833984375,1.23596191406,0.785827636719,-0.160217285156
1534594027.80.93994140625,-0.39794921875,-0.079833984375,1.71661376953,0.740051269531,-0.465393066406
1534594027.810.936279296875,-0.39501953125,-0.078369140625,1.35040283203,0.297546386719,-0.205993652344
1534594027.810.938232421875,-0.39599609375,-0.0859375,1.55639648438,0.686645507812,-0.198364257812
1534594027.810.939208984375,-0.39697265625,-0.08154296875,1.49536132812,0.541687011719,-0.244140625
1534594027.810.93505859375,-0.40234375,-0.079345703125,1.60217285156,0.541687011719,-0.30517578125
1534594027.820.934326171875,-0.397705078125,-0.08203125,1.41906738281,0.54931640625,-0.3662109375
1534594027.820.935546875,-0.400390625,-0.07861328125,1.56402587891,0.480651855469,-0.160217285156
1534594027.820.936767578125,-0.3994140625,-0.087158203125,1.51824951172,0.473022460938,-0.595092773438
1534594027.830.935546875,-0.396484375,-0.076904296875,1.5869140625,0.358581542969,-0.747680664062
1534594027.830.9345703125,-0.39599609375,-0.084228515625,1.3427734375,0.495910644531,-0.0991821289062
1534594027.830.9365234375,-0.395263671875,-0.083740234375,1.48773193359,0.450134277344,-0.389099121094
1534594027.830.93798828125,-0.3994140625,-0.0771484375,1.44195556641,0.877380371094,-0.18310546875
1534594027.840.93896484375,-0.402587890625,-0.081787109375,1.46484375,0.534057617188,-0.457763671875
1534594027.840.940185546875,-0.400634765625,-0.0849609375,1.56402587891,0.640869140625,-0.244140625
1534594027.840.93798828125,-0.396728515625,-0.080078125,1.47247314453,0.411987304688,-0.221252441406
1534594027.850.93603515625,-0.40185546875,-0.082275390625,1.5869140625,0.381469726562,-0.442504882812
1534594027.850.93798828125,-0.404052734375,-0.086181640625,1.54113769531,0.251770019531,-0.198364257812
1534594027.850.93798828125,-0.39990234375,-0.083740234375,1.55639648438,0.480651855469,-0.18310546875
1534594027.860.931640625,-0.4013671875,-0.083740234375,1.53350830078,0.778198242188,-0.373840332031
1534594027.860.933837890625,-0.4013671875,-0.079833984375,1.5869140625,0.495910644531,-0.129699707031
1534594027.860.932861328125,-0.4033203125,-0.080078125,1.70135498047,0.602722167969,-0.350952148438
1534594027.870.93505859375,-0.399658203125,-0.084228515625,1.47247314453,0.42724609375,-0.228881835938
1534594027.870.936279296875,-0.400146484375,-0.083740234375,1.40380859375,0.434875488281,0.0686645507812
1534594027.870.938720703125,-0.400390625,-0.073974609375,1.55639648438,0.617980957031,-0.373840332031
1534594027.870.9345703125,-0.403564453125,-0.078857421875,1.69372558594,0.48828125,-0.205993652344
1534594027.880.937744140625,-0.40087890625,-0.07861328125,1.56402587891,0.717163085938,-0.457763671875
1534594027.880.93408203125,-0.402587890625,-0.081787109375,1.74713134766,0.419616699219,-0.473022460938
1534594027.880.935302734375,-0.39990234375,-0.076904296875,1.53350830078,0.694274902344,-0.221252441406
1534594027.880.93408203125,-0.39892578125,-0.080810546875,1.27410888672,0.404357910156,-0.404357910156
1534594027.890.935791015625,-0.398193359375,-0.089599609375,1.59454345703,0.709533691406,-0.350952148438
1534594027.890.933349609375,-0.400390625,-0.080322265625,1.80053710938,0.457763671875,-0.328063964844
1534594027.890.935302734375,-0.405517578125,-0.076416015625,1.40380859375,0.373840332031,-0.48828125
1534594027.890.93701171875,-0.39892578125,-0.077880859375,1.17492675781,0.511169433594,-0.572204589844
1534594027.90.937744140625,-0.398193359375,-0.07958984375,1.43432617188,0.595092773438,-0.541687011719
1534594027.90.93701171875,-0.39794921875,-0.083740234375,1.31988525391,0.411987304688,-0.54931640625
1534594027.90.93408203125,-0.40087890625,-0.08837890625,1.54876708984,0.602722167969,-0.6103515625
1534594027.90.9375,-0.400634765625,-0.080322265625,1.35803222656,0.274658203125,-0.640869140625
1534594027.910.936767578125,-0.39892578125,-0.0791015625,1.52587890625,0.633239746094,-0.595092773438
1534594027.910.936279296875,-0.40087890625,-0.07958984375,1.71661376953,0.480651855469,-0.640869140625
1534594027.910.93701171875,-0.400390625,-0.085205078125,1.36566162109,0.465393066406,-0.694274902344
1534594027.920.939208984375,-0.400146484375,-0.0859375,1.5869140625,0.747680664062,-0.473022460938
1534594027.920.941162109375,-0.399169921875,-0.0859375,1.43432617188,0.3662109375,-0.297546386719
1534594027.920.935546875,-0.399169921875,-0.080810546875,1.57165527344,0.526428222656,-0.434875488281
1534594027.920.93896484375,-0.4013671875,-0.082763671875,1.51062011719,0.633239746094,-0.0381469726562
1534594027.930.936767578125,-0.3994140625,-0.080810546875,1.41143798828,0.587463378906,-0.267028808594
1534594027.930.936279296875,-0.3955078125,-0.075927734375,1.50299072266,0.602722167969,-0.3662109375
1534594027.930.93896484375,-0.40234375,-0.076416015625,1.63269042969,0.564575195312,-0.267028808594
1534594027.930.9375,-0.395263671875,-0.07763671875,1.3427734375,0.473022460938,-0.297546386719
1534594027.940.934326171875,-0.396728515625,-0.081298828125,1.60217285156,0.518798828125,-0.3662109375
1534594027.940.939453125,-0.39501953125,-0.081298828125,1.73187255859,0.556945800781,-0.450134277344
1534594027.940.939208984375,-0.399658203125,-0.0830078125,1.45721435547,0.701904296875,-0.289916992188
1534594027.950.9375,-0.3984375,-0.08251953125,1.37329101562,0.312805175781,-0.503540039062
1534594027.950.931884765625,-0.396240234375,-0.078369140625,1.59454345703,0.442504882812,-0.312805175781
1534594027.950.937255859375,-0.39453125,-0.08203125,1.41906738281,0.457763671875,-0.228881835938
1534594027.950.93701171875,-0.401123046875,-0.08056640625,1.51824951172,0.54931640625,-0.358581542969
1534594027.960.93798828125,-0.394775390625,-0.077880859375,1.41143798828,0.54931640625,-0.442504882812
1534594027.960.9375,-0.396240234375,-0.081298828125,1.55639648438,0.511169433594,-0.656127929688
1534594027.960.934814453125,-0.392822265625,-0.075927734375,1.54876708984,0.633239746094,-0.251770019531
1534594027.970.93994140625,-0.402099609375,-0.081298828125,1.25122070312,0.328063964844,-0.419616699219
1534594027.970.939453125,-0.4013671875,-0.0830078125,1.31225585938,0.648498535156,-0.556945800781
1534594027.980.9375,-0.399658203125,-0.08251953125,1.57165527344,0.473022460938,-0.091552734375
1534594027.980.93896484375,-0.401611328125,-0.08203125,1.51824951172,0.564575195312,-0.465393066406
1534594027.980.93701171875,-0.401123046875,-0.08203125,1.68609619141,0.495910644531,-0.167846679688
1534594027.980.934326171875,-0.397705078125,-0.07958984375,1.61743164062,0.404357910156,-0.0762939453125
1534594027.990.9375,-0.40380859375,-0.075439453125,1.54876708984,0.42724609375,-0.221252441406
1534594027.990.9296875,-0.3994140625,-0.0830078125,1.62506103516,0.457763671875,-0.190734863281
1534594027.990.928466796875,-0.400146484375,-0.076904296875,1.45721435547,0.541687011719,-0.137329101562
1534594027.990.935302734375,-0.40185546875,-0.0791015625,1.69372558594,0.3662109375,-0.244140625
1534594028.00.93408203125,-0.398193359375,-0.079833984375,1.53350830078,0.686645507812,-0.198364257812
1534594028.00.932861328125,-0.40283203125,-0.083984375,1.62506103516,0.48828125,-0.328063964844
1534594028.00.9384765625,-0.40185546875,-0.0888671875,1.41906738281,0.457763671875,-0.350952148438
1534594028.010.935791015625,-0.403564453125,-0.07666015625,1.57928466797,0.54931640625,-0.389099121094
1534594028.010.938232421875,-0.40283203125,-0.08349609375,1.26647949219,0.473022460938,-0.297546386719
1534594028.010.935791015625,-0.399658203125,-0.081298828125,1.57928466797,0.572204589844,-0.350952148438
1534594028.010.936279296875,-0.4033203125,-0.082275390625,1.44958496094,0.389099121094,-0.633239746094
1534594028.020.935791015625,-0.398681640625,-0.086669921875,1.66320800781,0.656127929688,-0.503540039062
1534594028.020.93798828125,-0.401123046875,-0.07763671875,1.48010253906,0.259399414062,-0.442504882812
1534594028.020.93359375,-0.403076171875,-0.0849609375,1.26647949219,0.450134277344,-0.625610351562
1534594028.020.935302734375,-0.401123046875,-0.078125,1.39617919922,0.350952148438,-0.495910644531
1534594028.030.936767578125,-0.399169921875,-0.08154296875,1.31225585938,0.526428222656,-0.564575195312
1534594028.030.9375,-0.3955078125,-0.075927734375,1.88446044922,0.503540039062,-0.381469726562
1534594028.030.9375,-0.40087890625,-0.08544921875,1.49536132812,0.686645507812,-0.457763671875
1534594028.040.93505859375,-0.399169921875,-0.086181640625,1.71661376953,0.617980957031,-0.289916992188
1534594028.040.935302734375,-0.401611328125,-0.0810546875,1.33514404297,0.595092773438,-0.152587890625
1534594028.040.93505859375,-0.396484375,-0.08544921875,1.44958496094,0.686645507812,-0.350952148438
1534594028.040.93603515625,-0.400146484375,-0.08349609375,1.73187255859,0.595092773438,-0.335693359375
1534594028.050.9365234375,-0.401123046875,-0.0791015625,1.67083740234,0.473022460938,-0.30517578125
1534594028.050.935546875,-0.400146484375,-0.07275390625,1.51824951172,0.495910644531,-0.213623046875
1534594028.050.9375,-0.39697265625,-0.080322265625,1.66320800781,0.434875488281,-0.404357910156
1534594028.050.938720703125,-0.398681640625,-0.0791015625,1.79290771484,0.396728515625,-0.42724609375
1534594028.060.935546875,-0.39794921875,-0.076416015625,1.44195556641,0.54931640625,-0.617980957031
1534594028.060.935546875,-0.40087890625,-0.076416015625,1.23596191406,0.373840332031,-0.602722167969
1534594028.060.9326171875,-0.3994140625,-0.082763671875,1.25885009766,0.572204589844,-0.450134277344
1534594028.070.93701171875,-0.401611328125,-0.080322265625,1.33514404297,0.297546386719,-0.396728515625
1534594028.070.933349609375,-0.394775390625,-0.083251953125,1.44958496094,0.556945800781,-0.419616699219
1534594028.080.94091796875,-0.39599609375,-0.080810546875,1.41143798828,0.511169433594,-0.762939453125
1534594028.080.94140625,-0.396728515625,-0.086669921875,1.56402587891,0.534057617188,-0.534057617188
1534594028.080.93505859375,-0.401611328125,-0.077392578125,1.59454345703,0.244140625,-0.320434570312
1534594028.080.93994140625,-0.395263671875,-0.08203125,1.63269042969,0.480651855469,-0.236511230469
1534594028.090.9365234375,-0.396240234375,-0.076171875,1.54876708984,0.8544921875,-0.3662109375
1534594028.090.93310546875,-0.40087890625,-0.077392578125,1.49536132812,0.282287597656,-0.3662109375
1534594028.090.93603515625,-0.401611328125,-0.083984375,1.55639648438,0.48828125,-0.106811523438
1534594028.10.939453125,-0.4013671875,-0.08154296875,1.5869140625,0.3662109375,-0.205993652344
1534594028.10.935546875,-0.400146484375,-0.07763671875,1.62506103516,0.602722167969,-0.267028808594
1534594028.10.935791015625,-0.39599609375,-0.080322265625,1.39617919922,0.679016113281,-0.1220703125
1534594028.10.935791015625,-0.39990234375,-0.082275390625,1.75476074219,0.564575195312,-0.358581542969
1534594028.110.93505859375,-0.396728515625,-0.079833984375,1.47247314453,0.564575195312,-0.267028808594
1534594028.110.936767578125,-0.39892578125,-0.079833984375,1.62506103516,0.42724609375,-0.473022460938
1534594028.110.931396484375,-0.39892578125,-0.080322265625,1.67846679688,0.663757324219,-0.42724609375
1534594028.110.936767578125,-0.40234375,-0.0849609375,1.708984375,0.350952148438,-0.518798828125
1534594028.120.938232421875,-0.4013671875,-0.08251953125,1.57928466797,0.541687011719,-0.656127929688
1534594028.120.93408203125,-0.403076171875,-0.078125,1.35040283203,0.411987304688,-0.297546386719
1534594028.120.9375,-0.400390625,-0.076904296875,1.30462646484,0.358581542969,-0.389099121094
1534594028.120.93359375,-0.401611328125,-0.08056640625,1.44958496094,0.54931640625,-0.572204589844
1534594028.130.93603515625,-0.399169921875,-0.08251953125,1.71661376953,0.450134277344,-0.625610351562
1534594028.130.94091796875,-0.400390625,-0.080810546875,1.51824951172,0.518798828125,-0.42724609375
1534594028.130.939208984375,-0.400390625,-0.088134765625,1.66320800781,0.679016113281,-0.473022460938
1534594028.130.939453125,-0.401123046875,-0.082763671875,1.45721435547,0.579833984375,-0.434875488281
1534594028.140.935791015625,-0.399658203125,-0.0830078125,1.81579589844,0.556945800781,-0.358581542969
1534594028.140.9365234375,-0.399169921875,-0.080078125,1.63269042969,0.67138671875,-0.541687011719
1534594028.140.934814453125,-0.400634765625,-0.080078125,1.57165527344,0.625610351562,-0.526428222656
1534594028.150.94189453125,-0.399658203125,-0.083740234375,1.63269042969,0.686645507812,-0.282287597656
1534594028.150.9384765625,-0.399658203125,-0.081787109375,1.60980224609,0.617980957031,-0.350952148438
1534594028.150.939697265625,-0.40087890625,-0.084716796875,1.48010253906,0.541687011719,-0.190734863281
1534594028.150.935546875,-0.402587890625,-0.0849609375,1.60217285156,0.411987304688,-0.579833984375
1534594028.160.93603515625,-0.397705078125,-0.08935546875,1.35803222656,0.587463378906,-0.335693359375
1534594028.160.939453125,-0.399658203125,-0.083984375,1.54876708984,0.656127929688,-0.396728515625
1534594028.160.939453125,-0.3994140625,-0.083984375,1.42669677734,0.709533691406,-0.312805175781
1534594028.160.937744140625,-0.39892578125,-0.084716796875,1.82342529297,0.434875488281,-0.389099121094
1534594028.170.935546875,-0.3994140625,-0.078857421875,1.39617919922,0.572204589844,-0.30517578125
1534594028.170.93701171875,-0.3974609375,-0.081298828125,1.74713134766,0.656127929688,-0.198364257812
1534594028.170.93603515625,-0.396728515625,-0.07470703125,1.57928466797,0.518798828125,-0.236511230469
1534594028.170.938720703125,-0.39990234375,-0.084228515625,1.52587890625,0.67138671875,-0.358581542969
1534594028.180.932861328125,-0.40234375,-0.07568359375,1.55639648438,0.297546386719,-0.328063964844
1534594028.180.935791015625,-0.400634765625,-0.081298828125,1.51062011719,0.6103515625,-0.48828125
1534594028.180.932373046875,-0.40185546875,-0.0830078125,1.44958496094,0.289916992188,-0.534057617188
1534594028.180.933837890625,-0.402587890625,-0.079345703125,1.39617919922,0.602722167969,-0.656127929688
1534594028.190.9345703125,-0.398193359375,-0.081298828125,1.47247314453,0.648498535156,-0.465393066406
1534594028.190.937255859375,-0.403564453125,-0.078125,1.31988525391,0.457763671875,-0.465393066406
1534594028.190.938720703125,-0.39794921875,-0.079833984375,1.43432617188,0.6103515625,-0.3662109375
1534594028.20.939208984375,-0.3974609375,-0.076904296875,1.45721435547,0.694274902344,-0.297546386719
1534594028.20.936767578125,-0.40087890625,-0.080810546875,1.51062011719,0.1220703125,-0.473022460938
1534594028.20.93603515625,-0.406982421875,-0.083251953125,1.76239013672,0.770568847656,-0.221252441406
1534594028.20.935302734375,-0.4013671875,-0.075927734375,1.60980224609,0.526428222656,-0.282287597656
1534594028.210.933837890625,-0.4033203125,-0.08349609375,1.68609619141,0.511169433594,-0.274658203125
1534594028.210.936279296875,-0.39794921875,-0.077880859375,1.35040283203,0.465393066406,-0.30517578125
1534594028.220.937255859375,-0.402587890625,-0.084716796875,1.220703125,0.648498535156,-0.373840332031
1534594028.220.93701171875,-0.400390625,-0.083251953125,1.35040283203,0.442504882812,-0.396728515625
1534594028.220.935546875,-0.39892578125,-0.0791015625,1.41143798828,0.404357910156,-0.358581542969
1534594028.220.939453125,-0.402587890625,-0.080078125,1.66320800781,0.602722167969,-0.541687011719
1534594028.230.9384765625,-0.400634765625,-0.083251953125,1.50299072266,0.396728515625,-0.495910644531
1534594028.230.9345703125,-0.40185546875,-0.081787109375,1.14440917969,0.587463378906,-0.541687011719
1534594028.230.933349609375,-0.400390625,-0.07958984375,1.68609619141,0.526428222656,-0.503540039062
1534594028.240.93603515625,-0.39990234375,-0.079345703125,1.47247314453,0.389099121094,-0.518798828125
1534594028.240.9375,-0.4013671875,-0.081298828125,1.33514404297,0.473022460938,-0.572204589844
1534594028.240.9384765625,-0.399658203125,-0.08251953125,1.32751464844,0.473022460938,-0.564575195312
1534594028.240.932861328125,-0.39697265625,-0.0771484375,1.65557861328,0.633239746094,-0.42724609375
1534594028.250.940673828125,-0.39990234375,-0.080810546875,1.47247314453,0.67138671875,-0.335693359375
1534594028.250.937255859375,-0.40234375,-0.086181640625,1.32751464844,0.503540039062,-0.343322753906
1534594028.250.937255859375,-0.40234375,-0.080078125,1.55639648438,0.442504882812,-0.411987304688
1534594028.250.9404296875,-0.3994140625,-0.0791015625,1.73187255859,0.755310058594,-0.373840332031
1534594028.260.93994140625,-0.398193359375,-0.0791015625,1.60217285156,0.465393066406,-0.251770019531
1534594028.260.9375,-0.403076171875,-0.076904296875,1.50299072266,0.564575195312,-0.282287597656
1534594028.260.934814453125,-0.398193359375,-0.08056640625,1.66320800781,0.602722167969,-0.30517578125
1534594028.260.937255859375,-0.400634765625,-0.0732421875,1.71661376953,0.503540039062,-0.328063964844
1534594028.270.93701171875,-0.398193359375,-0.08154296875,1.37329101562,0.686645507812,-0.175476074219
1534594028.270.931396484375,-0.4013671875,-0.08203125,1.44195556641,0.556945800781,-0.450134277344
1534594028.270.93994140625,-0.39892578125,-0.084228515625,1.33514404297,0.564575195312,-0.419616699219
1534594028.280.93701171875,-0.397705078125,-0.082275390625,1.29699707031,0.480651855469,-0.534057617188
1534594028.280.93408203125,-0.404296875,-0.085693359375,1.48773193359,0.1220703125,-0.3662109375
1534594028.280.937744140625,-0.3974609375,-0.080810546875,1.53350830078,0.457763671875,-0.473022460938
1534594028.280.937744140625,-0.3984375,-0.08203125,1.54876708984,0.572204589844,-0.473022460938
1534594028.290.935302734375,-0.40087890625,-0.087890625,1.37329101562,0.724792480469,-0.473022460938
1534594028.290.936279296875,-0.3994140625,-0.076171875,1.31988525391,0.3662109375,-0.42724609375
1534594028.290.94140625,-0.40625,-0.08251953125,1.77001953125,0.755310058594,-0.503540039062
1534594028.290.935791015625,-0.404052734375,-0.079833984375,1.28173828125,0.343322753906,-0.419616699219
1534594028.30.9375,-0.397705078125,-0.08056640625,1.40380859375,0.335693359375,-0.442504882812
1534594028.30.939208984375,-0.400390625,-0.08642578125,1.25885009766,0.518798828125,-0.511169433594
1534594028.30.938720703125,-0.400146484375,-0.078369140625,1.41906738281,0.640869140625,-0.473022460938
1534594028.310.936767578125,-0.40234375,-0.078857421875,1.31988525391,0.465393066406,-0.335693359375
1534594028.310.9384765625,-0.399169921875,-0.075927734375,1.48773193359,0.724792480469,-0.236511230469
1534594028.310.939697265625,-0.397216796875,-0.077392578125,1.54876708984,0.450134277344,-0.137329101562
1534594028.310.937744140625,-0.3984375,-0.073974609375,1.36566162109,0.541687011719,-0.0228881835938
1534594028.320.938232421875,-0.40380859375,-0.08349609375,1.53350830078,0.503540039062,-0.18310546875
1534594028.320.934814453125,-0.400390625,-0.082763671875,1.708984375,0.457763671875,-0.312805175781
1534594028.320.935302734375,-0.394287109375,-0.076904296875,1.53350830078,0.289916992188,-0.30517578125
1534594028.320.935302734375,-0.40087890625,-0.077880859375,1.68609619141,0.587463378906,-0.0457763671875
1534594028.330.938720703125,-0.4013671875,-0.080078125,1.48773193359,0.648498535156,-0.297546386719
1534594028.330.937255859375,-0.397216796875,-0.081787109375,1.75476074219,0.358581542969,-0.495910644531
1534594028.330.9375,-0.400390625,-0.081298828125,1.55639648438,0.846862792969,-0.282287597656
1534594028.330.936767578125,-0.40283203125,-0.086669921875,1.41906738281,0.450134277344,-0.343322753906
1534594028.340.937744140625,-0.403076171875,-0.079833984375,1.49536132812,0.526428222656,-0.54931640625
1534594028.340.93603515625,-0.402099609375,-0.07958984375,1.38854980469,0.335693359375,-0.595092773438
1534594028.340.933349609375,-0.396728515625,-0.080322265625,1.36566162109,0.686645507812,-0.358581542969
1534594028.340.939453125,-0.396240234375,-0.07861328125,1.41143798828,0.465393066406,-0.686645507812
1534594028.350.931396484375,-0.399658203125,-0.07958984375,1.41143798828,0.579833984375,-0.534057617188
1534594028.350.935791015625,-0.40234375,-0.08349609375,1.48010253906,0.633239746094,-0.54931640625
1534594028.350.93603515625,-0.402587890625,-0.0810546875,1.26647949219,0.48828125,-0.404357910156
1534594028.350.935546875,-0.3994140625,-0.088134765625,1.50299072266,0.465393066406,-0.511169433594
1534594028.360.931640625,-0.398681640625,-0.08154296875,1.57928466797,0.595092773438,-0.450134277344
1534594028.360.932861328125,-0.40380859375,-0.07763671875,1.54876708984,0.526428222656,-0.259399414062
1534594028.360.941162109375,-0.400634765625,-0.080322265625,1.30462646484,0.396728515625,-0.663757324219
1534594028.360.9365234375,-0.3994140625,-0.082275390625,1.61743164062,0.434875488281,-0.419616699219
1534594028.370.93359375,-0.3994140625,-0.076171875,1.51062011719,0.602722167969,-0.228881835938
1534594028.370.9306640625,-0.400390625,-0.08251953125,1.38092041016,0.503540039062,-0.442504882812
1534594028.370.93310546875,-0.40283203125,-0.084228515625,1.53350830078,0.541687011719,-0.0991821289062
1534594028.370.93359375,-0.39990234375,-0.083251953125,1.48010253906,0.778198242188,-0.228881835938
1534594028.380.936279296875,-0.39794921875,-0.08056640625,1.48773193359,0.762939453125,-0.289916992188
1534594028.380.9375,-0.400390625,-0.08154296875,1.43432617188,0.740051269531,-0.137329101562
1534594028.380.933349609375,-0.398681640625,-0.075439453125,1.64031982422,0.389099121094,-0.228881835938
1534594028.390.93408203125,-0.402099609375,-0.082763671875,1.54113769531,0.457763671875,-0.343322753906
1534594028.390.936279296875,-0.399169921875,-0.07958984375,1.44958496094,0.396728515625,-0.259399414062
1534594028.390.936767578125,-0.4013671875,-0.079345703125,1.54876708984,0.526428222656,-0.473022460938
1534594028.390.9365234375,-0.3984375,-0.0859375,1.37329101562,0.465393066406,-0.442504882812
1534594028.40.941162109375,-0.399658203125,-0.084228515625,1.60217285156,0.381469726562,-0.480651855469
1534594028.40.937255859375,-0.40087890625,-0.0810546875,1.53350830078,0.816345214844,-0.640869140625
1534594028.40.935302734375,-0.400146484375,-0.08203125,1.57928466797,0.343322753906,-0.564575195312
1534594028.40.93603515625,-0.39892578125,-0.082275390625,1.48773193359,0.518798828125,-0.732421875
1534594028.410.941162109375,-0.39892578125,-0.079345703125,1.54876708984,0.442504882812,-0.633239746094
1534594028.410.939208984375,-0.4013671875,-0.079833984375,1.51824951172,0.465393066406,-0.808715820312
1534594028.410.9365234375,-0.397705078125,-0.07666015625,1.66320800781,0.770568847656,-0.709533691406
1534594028.410.9375,-0.39794921875,-0.0810546875,1.3427734375,0.656127929688,-0.602722167969
1534594028.420.93994140625,-0.400634765625,-0.085205078125,1.53350830078,0.48828125,-0.473022460938
1534594028.420.939697265625,-0.398193359375,-0.085205078125,1.45721435547,0.526428222656,-0.419616699219
1534594028.420.937255859375,-0.39794921875,-0.080322265625,1.40380859375,0.503540039062,-0.526428222656
1534594028.420.9404296875,-0.401611328125,-0.07177734375,1.60980224609,0.381469726562,-0.465393066406
1534594028.430.939208984375,-0.398193359375,-0.075927734375,1.57165527344,0.564575195312,-0.267028808594
1534594028.430.934326171875,-0.400390625,-0.08984375,1.73950195312,0.648498535156,-0.434875488281
1534594028.430.93408203125,-0.400634765625,-0.084228515625,1.50299072266,0.358581542969,-0.320434570312
1534594028.430.935302734375,-0.40234375,-0.084228515625,1.64794921875,0.511169433594,-0.167846679688
1534594028.440.9404296875,-0.400146484375,-0.080078125,1.60217285156,0.640869140625,-0.419616699219
1534594028.440.936767578125,-0.399169921875,-0.0751953125,1.45721435547,0.465393066406,-0.358581542969
1534594028.440.938720703125,-0.39697265625,-0.083251953125,1.43432617188,0.801086425781,-0.358581542969
1534594028.450.935546875,-0.396728515625,-0.081787109375,1.37329101562,0.228881835938,-0.587463378906
1534594028.450.9384765625,-0.3984375,-0.084716796875,1.62506103516,0.450134277344,-0.312805175781
1534594028.450.935302734375,-0.402099609375,-0.08349609375,1.44195556641,0.495910644531,-0.358581542969
1534594028.450.939208984375,-0.39892578125,-0.0791015625,1.41906738281,0.473022460938,-0.434875488281
1534594028.460.9375,-0.39892578125,-0.07861328125,1.45721435547,0.442504882812,-0.42724609375
1534594028.460.93798828125,-0.39697265625,-0.085693359375,1.31225585938,0.511169433594,-0.701904296875
1534594028.460.9375,-0.397216796875,-0.0849609375,1.48010253906,0.709533691406,-0.633239746094
1534594028.470.93896484375,-0.39697265625,-0.08056640625,1.23596191406,0.259399414062,-0.503540039062
1534594028.470.938232421875,-0.3955078125,-0.0859375,1.57928466797,0.442504882812,-0.633239746094
1534594028.470.94189453125,-0.398681640625,-0.0830078125,1.43432617188,0.3662109375,-0.274658203125
1534594028.470.941162109375,-0.397705078125,-0.078857421875,1.48010253906,0.663757324219,-0.450134277344
1534594028.480.927978515625,-0.397216796875,-0.08642578125,1.64794921875,0.282287597656,-0.335693359375
1534594028.480.9443359375,-0.407958984375,-0.0830078125,1.23596191406,1.53350830078,-0.205993652344
1534594028.480.9296875,-0.3955078125,-0.080810546875,1.92260742188,-0.251770019531,-0.18310546875
1534594028.480.939697265625,-0.39697265625,-0.074462890625,1.47247314453,0.625610351562,-0.144958496094
1534594028.490.93310546875,-0.397705078125,-0.081298828125,1.46484375,0.892639160156,-0.0762939453125
1534594028.490.943359375,-0.4091796875,-0.0791015625,1.49536132812,0.480651855469,-0.267028808594
1534594028.490.92822265625,-0.3955078125,-0.083984375,1.78527832031,0.350952148438,0.0
1534594028.490.94140625,-0.402099609375,-0.08642578125,1.32751464844,0.770568847656,-0.473022460938
1534594028.50.931640625,-0.3984375,-0.08447265625,1.57928466797,0.625610351562,-0.42724609375
1534594028.50.93896484375,-0.40234375,-0.0849609375,1.57165527344,0.373840332031,-0.6103515625
1534594028.50.932861328125,-0.400390625,-0.0791015625,1.26647949219,0.503540039062,-0.640869140625
1534594028.510.93603515625,-0.397216796875,-0.075927734375,1.41906738281,0.526428222656,-0.465393066406
1534594028.510.934326171875,-0.39501953125,-0.079833984375,1.61743164062,0.518798828125,-0.442504882812
1534594028.510.934326171875,-0.3974609375,-0.083984375,1.57928466797,0.679016113281,-0.350952148438
1534594028.510.938232421875,-0.402587890625,-0.085205078125,1.3427734375,0.480651855469,-0.534057617188
1534594028.520.9365234375,-0.401611328125,-0.083984375,1.56402587891,0.404357910156,-0.335693359375
1534594028.520.93603515625,-0.400634765625,-0.079345703125,1.42669677734,0.556945800781,-0.167846679688
1534594028.520.935546875,-0.405029296875,-0.08056640625,1.39617919922,0.335693359375,-0.495910644531
1534594028.520.935791015625,-0.399658203125,-0.07958984375,1.51824951172,0.335693359375,-0.335693359375
1534594028.530.9326171875,-0.4013671875,-0.08251953125,1.35040283203,0.740051269531,-0.495910644531
1534594028.530.9345703125,-0.401611328125,-0.0791015625,1.51062011719,0.679016113281,-0.518798828125
1534594028.530.93798828125,-0.398193359375,-0.076904296875,1.71661376953,0.434875488281,-0.396728515625
1534594028.530.93603515625,-0.40185546875,-0.082275390625,1.39617919922,0.511169433594,-0.534057617188
1534594028.540.935302734375,-0.402587890625,-0.077880859375,1.5869140625,0.572204589844,-0.518798828125
1534594028.540.934814453125,-0.39990234375,-0.083740234375,1.64794921875,0.389099121094,-0.312805175781
1534594028.540.932861328125,-0.4052734375,-0.073486328125,1.33514404297,0.389099121094,-0.587463378906
1534594028.550.93212890625,-0.395751953125,-0.079345703125,1.43432617188,0.617980957031,-0.381469726562
1534594028.550.936767578125,-0.40283203125,-0.076904296875,1.62506103516,0.564575195312,-0.579833984375
1534594028.550.9365234375,-0.4033203125,-0.073486328125,1.61743164062,0.541687011719,-0.389099121094
1534594028.560.937255859375,-0.40185546875,-0.080322265625,1.44195556641,0.633239746094,-0.778198242188
1534594028.560.938232421875,-0.398681640625,-0.083251953125,1.63269042969,0.587463378906,-0.572204589844
1534594028.560.93701171875,-0.3984375,-0.080810546875,1.51062011719,0.534057617188,-0.656127929688
1534594028.560.938720703125,-0.398193359375,-0.076171875,1.52587890625,0.495910644531,-0.282287597656
1534594028.570.93994140625,-0.3974609375,-0.078125,1.61743164062,0.442504882812,-0.633239746094
1534594028.570.935791015625,-0.400634765625,-0.08349609375,1.65557861328,0.556945800781,-0.267028808594
1534594028.570.93798828125,-0.3984375,-0.0849609375,1.53350830078,0.541687011719,-0.419616699219
1534594028.570.937744140625,-0.401123046875,-0.07958984375,1.48010253906,0.54931640625,-0.709533691406
1534594028.580.93408203125,-0.397216796875,-0.076416015625,1.52587890625,0.579833984375,-0.312805175781
1534594028.580.9365234375,-0.400146484375,-0.075927734375,1.69372558594,0.541687011719,-0.297546386719
1534594028.580.937255859375,-0.39599609375,-0.07958984375,1.54876708984,0.778198242188,-0.404357910156
1534594028.590.938720703125,-0.401123046875,-0.0830078125,1.60217285156,0.526428222656,-0.1220703125
1534594028.590.940673828125,-0.398681640625,-0.075927734375,1.37329101562,0.686645507812,-0.404357910156
1534594028.590.9384765625,-0.404296875,-0.081298828125,1.54876708984,0.534057617188,-0.30517578125
1534594028.590.940185546875,-0.398193359375,-0.078369140625,1.67846679688,0.48828125,-0.442504882812
1534594028.60.938232421875,-0.400146484375,-0.08447265625,1.43432617188,0.289916992188,-0.457763671875
1534594028.60.933837890625,-0.395751953125,-0.08447265625,1.45721435547,0.419616699219,-0.312805175781
1534594028.60.935791015625,-0.40283203125,-0.0849609375,1.62506103516,0.228881835938,-0.411987304688
1534594028.60.93359375,-0.402099609375,-0.087890625,1.42669677734,0.648498535156,-0.335693359375
1534594028.610.93701171875,-0.40283203125,-0.078125,1.5869140625,0.701904296875,-0.54931640625
1534594028.610.939453125,-0.40380859375,-0.081298828125,1.75476074219,0.534057617188,-0.404357910156
1534594028.610.934326171875,-0.402587890625,-0.0849609375,1.5869140625,0.450134277344,-0.48828125
1534594028.610.937744140625,-0.400390625,-0.088623046875,1.33514404297,0.518798828125,-0.282287597656
1534594028.620.9345703125,-0.39794921875,-0.087890625,1.5869140625,0.808715820312,-0.495910644531
1534594028.620.9345703125,-0.3984375,-0.0810546875,1.36566162109,0.389099121094,-0.442504882812
1534594028.620.9375,-0.40185546875,-0.0771484375,1.74713134766,0.762939453125,-0.938415527344
1534594028.620.934326171875,-0.402099609375,-0.079345703125,1.31988525391,0.450134277344,-0.473022460938
1534594028.630.93310546875,-0.399169921875,-0.084716796875,1.48010253906,0.480651855469,-0.518798828125
1534594028.630.93603515625,-0.400390625,-0.080810546875,1.43432617188,0.564575195312,-0.419616699219
1534594028.630.932861328125,-0.401123046875,-0.08203125,1.48010253906,0.640869140625,-0.411987304688
1534594028.640.937255859375,-0.398681640625,-0.07958984375,1.39617919922,0.526428222656,-0.221252441406
1534594028.640.939697265625,-0.39892578125,-0.083984375,1.44958496094,0.450134277344,-0.213623046875
1534594028.640.93603515625,-0.401123046875,-0.07861328125,1.61743164062,0.823974609375,-0.320434570312
1534594028.640.93798828125,-0.403564453125,-0.074462890625,1.67846679688,0.679016113281,-0.0381469726562
1534594028.650.938232421875,-0.3994140625,-0.083984375,1.62506103516,0.732421875,-0.457763671875
1534594028.650.93603515625,-0.3994140625,-0.083740234375,1.62506103516,0.6103515625,-0.190734863281
1534594028.650.937744140625,-0.4033203125,-0.07958984375,1.44195556641,0.518798828125,-0.450134277344
1534594028.650.938232421875,-0.399658203125,-0.07861328125,1.49536132812,0.442504882812,-0.511169433594
1534594028.660.936767578125,-0.4013671875,-0.076171875,1.41143798828,0.564575195312,-0.579833984375
1534594028.660.938232421875,-0.398193359375,-0.0771484375,1.55639648438,0.373840332031,-0.282287597656
1534594028.660.935302734375,-0.40087890625,-0.078857421875,1.44195556641,0.442504882812,-0.564575195312
1534594028.660.936279296875,-0.403076171875,-0.08154296875,1.76239013672,0.564575195312,-0.350952148438
1534594028.670.935546875,-0.39697265625,-0.0791015625,1.48773193359,0.411987304688,-0.480651855469
1534594028.670.940185546875,-0.399658203125,-0.077392578125,1.66320800781,0.503540039062,-0.396728515625
1534594028.670.935546875,-0.400390625,-0.078857421875,1.41143798828,0.633239746094,-0.556945800781
1534594028.670.936279296875,-0.399169921875,-0.08349609375,1.36566162109,0.389099121094,-0.656127929688
1534594028.680.937744140625,-0.401123046875,-0.07177734375,1.63269042969,0.640869140625,-0.656127929688
1534594028.680.939208984375,-0.39501953125,-0.07763671875,1.27410888672,0.0991821289062,-0.701904296875
1534594028.680.939208984375,-0.39794921875,-0.075927734375,1.31225585938,0.579833984375,-0.534057617188
1534594028.690.9384765625,-0.3994140625,-0.07861328125,1.32751464844,0.274658203125,-0.633239746094
1534594028.690.935791015625,-0.399658203125,-0.07763671875,1.25885009766,0.48828125,-0.526428222656
1534594028.690.935546875,-0.39599609375,-0.07763671875,1.76239013672,0.328063964844,-0.656127929688
1534594028.690.938232421875,-0.400390625,-0.079345703125,1.54876708984,0.709533691406,-0.6103515625
1534594028.70.939208984375,-0.39697265625,-0.076904296875,1.56402587891,0.526428222656,-0.228881835938
1534594028.70.936279296875,-0.392822265625,-0.078125,1.42669677734,0.297546386719,-0.465393066406
1534594028.70.9365234375,-0.400390625,-0.08251953125,1.80053710938,0.587463378906,-0.442504882812
1534594028.710.93701171875,-0.400146484375,-0.086669921875,1.52587890625,0.679016113281,-0.373840332031
1534594028.710.936279296875,-0.394287109375,-0.085205078125,1.28936767578,0.709533691406,-0.328063964844
1534594028.720.936767578125,-0.4013671875,-0.07861328125,1.35040283203,0.67138671875,-0.373840332031
1534594028.720.935791015625,-0.400390625,-0.08349609375,1.65557861328,0.228881835938,-0.442504882812
1534594028.720.938232421875,-0.400634765625,-0.088134765625,1.79290771484,0.480651855469,-0.511169433594
1534594028.730.934326171875,-0.398681640625,-0.08837890625,1.39617919922,0.640869140625,-0.343322753906
1534594028.730.9345703125,-0.39794921875,-0.082275390625,1.52587890625,0.396728515625,-0.358581542969
1534594028.730.93603515625,-0.400146484375,-0.08056640625,1.3427734375,0.709533691406,-0.190734863281
1534594028.730.937255859375,-0.401123046875,-0.083251953125,1.52587890625,0.389099121094,-0.465393066406
1534594028.740.93505859375,-0.401611328125,-0.0859375,1.46484375,0.450134277344,-0.480651855469
1534594028.740.936767578125,-0.400390625,-0.084716796875,1.51824951172,0.236511230469,-0.267028808594
1534594028.740.9365234375,-0.40234375,-0.088623046875,1.48010253906,0.732421875,-0.358581542969
1534594028.740.939453125,-0.396728515625,-0.08544921875,1.42669677734,0.564575195312,-0.297546386719
1534594028.750.9365234375,-0.402587890625,-0.083984375,1.55639648438,0.67138671875,-0.457763671875
1534594028.750.935791015625,-0.401611328125,-0.075439453125,1.60980224609,0.572204589844,-0.152587890625
1534594028.750.93212890625,-0.4013671875,-0.078857421875,1.80816650391,0.747680664062,-0.297546386719
1534594028.750.9365234375,-0.399169921875,-0.083740234375,1.50299072266,0.465393066406,-0.282287597656
1534594028.760.93701171875,-0.402587890625,-0.079345703125,1.64794921875,0.732421875,-0.30517578125
1534594028.760.934326171875,-0.40283203125,-0.083984375,1.64031982422,0.579833984375,-0.343322753906
1534594028.760.93310546875,-0.400634765625,-0.08203125,1.52587890625,0.373840332031,-0.30517578125
1534594028.770.93115234375,-0.40087890625,-0.079833984375,1.54876708984,0.480651855469,-0.518798828125
1534594028.770.935302734375,-0.400390625,-0.080810546875,1.54113769531,0.480651855469,-0.48828125
1534594028.770.934326171875,-0.402099609375,-0.0830078125,1.24359130859,0.633239746094,-0.732421875
1534594028.770.934326171875,-0.405029296875,-0.087646484375,1.35040283203,0.48828125,-0.221252441406
1534594028.780.9384765625,-0.39892578125,-0.079345703125,1.56402587891,0.602722167969,-0.648498535156
1534594028.780.93603515625,-0.403076171875,-0.077392578125,1.43432617188,0.442504882812,-0.434875488281
1534594028.780.935546875,-0.401611328125,-0.080078125,1.5869140625,0.511169433594,-0.732421875
1534594028.780.9404296875,-0.40087890625,-0.08349609375,1.28936767578,0.686645507812,-0.648498535156
1534594028.790.937255859375,-0.401123046875,-0.08203125,1.50299072266,0.297546386719,-0.465393066406
1534594028.790.936767578125,-0.397216796875,-0.0830078125,1.19018554688,0.869750976562,-0.42724609375
1534594028.790.935302734375,-0.399658203125,-0.0751953125,1.59454345703,0.175476074219,-0.42724609375
1534594028.790.94091796875,-0.400634765625,-0.08203125,1.52587890625,0.190734863281,-0.457763671875
1534594028.80.93994140625,-0.399658203125,-0.083251953125,1.57928466797,0.358581542969,-0.381469726562
1534594028.80.93701171875,-0.398681640625,-0.078857421875,1.73187255859,0.740051269531,-0.450134277344
1534594028.80.93603515625,-0.3974609375,-0.08447265625,1.44195556641,0.343322753906,-0.42724609375
1534594028.810.941162109375,-0.396240234375,-0.078857421875,1.35803222656,0.694274902344,-0.381469726562
1534594028.810.938232421875,-0.393798828125,-0.075927734375,1.22833251953,0.48828125,-0.175476074219
1534594028.810.939208984375,-0.39697265625,-0.081787109375,1.75476074219,0.335693359375,-0.259399414062
1534594028.810.935546875,-0.396240234375,-0.088134765625,1.62506103516,0.419616699219,-0.137329101562
1534594028.820.935302734375,-0.39990234375,-0.081298828125,1.33514404297,0.602722167969,-0.198364257812
1534594028.820.9375,-0.394775390625,-0.075439453125,1.66320800781,0.572204589844,-0.48828125
1534594028.820.934326171875,-0.396240234375,-0.081787109375,1.40380859375,0.579833984375,-0.0686645507812
1534594028.820.93408203125,-0.397705078125,-0.08349609375,1.54876708984,0.3662109375,-0.541687011719
1534594028.830.939697265625,-0.39794921875,-0.08154296875,1.42669677734,0.48828125,-0.442504882812
1534594028.830.9326171875,-0.396240234375,-0.08447265625,1.55639648438,0.396728515625,-0.602722167969
1534594028.830.933349609375,-0.400390625,-0.080322265625,1.33514404297,0.541687011719,-0.6103515625
1534594028.840.936279296875,-0.3984375,-0.083740234375,1.44195556641,0.42724609375,-0.503540039062
1534594028.840.93701171875,-0.400390625,-0.07958984375,1.55639648438,0.419616699219,-0.526428222656
1534594028.840.93701171875,-0.396240234375,-0.08154296875,1.41906738281,0.595092773438,-0.518798828125
1534594028.840.93310546875,-0.400634765625,-0.087158203125,1.36566162109,0.282287597656,-0.267028808594
1534594028.850.933837890625,-0.401123046875,-0.081787109375,1.28173828125,0.587463378906,-0.137329101562
1534594028.850.933349609375,-0.40087890625,-0.082275390625,1.56402587891,0.526428222656,-0.54931640625
1534594028.850.93896484375,-0.404052734375,-0.08203125,1.65557861328,0.534057617188,-0.190734863281
1534594028.850.93798828125,-0.400634765625,-0.088134765625,1.80053710938,0.518798828125,-0.190734863281
1534594028.860.940185546875,-0.400634765625,-0.086181640625,1.77001953125,0.694274902344,-0.373840332031
1534594028.860.9375,-0.40234375,-0.08935546875,1.54113769531,0.663757324219,-0.282287597656
1534594028.860.935546875,-0.401123046875,-0.085205078125,1.77764892578,0.572204589844,-0.0839233398438
1534594028.860.93408203125,-0.39794921875,-0.080322265625,1.60217285156,0.411987304688,-0.228881835938
1534594028.870.935546875,-0.400634765625,-0.07666015625,1.44958496094,0.747680664062,-0.274658203125
1534594028.870.93603515625,-0.40283203125,-0.085693359375,1.53350830078,0.717163085938,-0.205993652344
1534594028.870.933349609375,-0.4033203125,-0.08203125,1.30462646484,0.396728515625,-0.419616699219
1534594028.880.9365234375,-0.404052734375,-0.081298828125,1.65557861328,0.587463378906,-0.411987304688
1534594028.880.93310546875,-0.4013671875,-0.075927734375,1.3427734375,0.6103515625,-0.289916992188
1534594028.880.937255859375,-0.3984375,-0.08056640625,1.66320800781,0.518798828125,-0.0381469726562
1534594028.880.936279296875,-0.401611328125,-0.079345703125,1.44958496094,0.709533691406,-0.656127929688
1534594028.890.936767578125,-0.3974609375,-0.08203125,1.38092041016,0.67138671875,-0.602722167969
1534594028.890.9326171875,-0.4033203125,-0.07568359375,1.38092041016,0.312805175781,-0.732421875
1534594028.890.939208984375,-0.40380859375,-0.082275390625,1.25122070312,0.534057617188,-0.778198242188
1534594028.90.94091796875,-0.402099609375,-0.083740234375,1.51824951172,0.724792480469,-0.595092773438
1534594028.90.932861328125,-0.403076171875,-0.0810546875,1.12152099609,0.54931640625,-0.465393066406
1534594028.90.936279296875,-0.40380859375,-0.080322265625,1.51062011719,0.640869140625,-0.518798828125
1534594028.90.9375,-0.3984375,-0.08740234375,1.51062011719,0.350952148438,-0.503540039062
1534594028.910.9365234375,-0.40185546875,-0.080810546875,1.35040283203,0.686645507812,-0.282287597656
1534594028.910.93310546875,-0.400146484375,-0.078369140625,1.55639648438,0.518798828125,-0.267028808594
1534594028.910.933837890625,-0.403076171875,-0.085693359375,1.45721435547,0.67138671875,-0.137329101562
1534594028.910.935791015625,-0.404052734375,-0.082763671875,1.85394287109,0.396728515625,-0.30517578125
1534594028.920.941162109375,-0.3994140625,-0.080322265625,1.49536132812,0.640869140625,-0.167846679688
1534594028.920.9345703125,-0.398681640625,-0.07861328125,1.49536132812,0.67138671875,-0.114440917969
1534594028.920.93408203125,-0.40380859375,-0.08056640625,1.64031982422,0.534057617188,-0.236511230469
1534594028.920.9375,-0.400146484375,-0.08154296875,1.52587890625,0.625610351562,-0.297546386719
1534594028.930.938232421875,-0.396484375,-0.0771484375,1.44195556641,0.42724609375,-0.473022460938
1534594028.930.939208984375,-0.3994140625,-0.079345703125,1.44958496094,0.465393066406,-0.221252441406
1534594028.930.9365234375,-0.3994140625,-0.084716796875,1.38092041016,0.480651855469,-0.213623046875
1534594028.940.93310546875,-0.39794921875,-0.079345703125,1.40380859375,0.602722167969,-0.587463378906
1534594028.940.934326171875,-0.4013671875,-0.081298828125,1.54876708984,0.495910644531,-0.473022460938
1534594028.940.93701171875,-0.396728515625,-0.08154296875,1.22833251953,0.67138671875,-0.732421875
1534594028.940.935546875,-0.397216796875,-0.08837890625,1.38092041016,0.389099121094,-0.526428222656
1534594028.950.935546875,-0.398681640625,-0.076904296875,1.44958496094,0.236511230469,-0.778198242188
1534594028.950.939453125,-0.398193359375,-0.08251953125,1.43432617188,0.656127929688,-0.67138671875
1534594028.960.938720703125,-0.397705078125,-0.080810546875,1.3427734375,0.160217285156,-0.892639160156
1534594028.960.938232421875,-0.3984375,-0.088623046875,1.33514404297,0.602722167969,-0.473022460938
1534594028.960.938232421875,-0.393798828125,-0.07861328125,1.41143798828,0.617980957031,-0.160217285156
1534594028.970.94091796875,-0.3974609375,-0.084716796875,1.35803222656,0.648498535156,-0.396728515625
1534594028.970.936279296875,-0.395263671875,-0.092041015625,1.66320800781,0.595092773438,-0.167846679688
1534594028.970.939697265625,-0.39794921875,-0.08203125,1.86157226562,0.572204589844,-0.152587890625
1534594028.970.9365234375,-0.39501953125,-0.08251953125,1.53350830078,0.67138671875,-0.0152587890625
1534594028.980.936279296875,-0.403076171875,-0.08544921875,1.54876708984,0.686645507812,-0.0228881835938
1534594028.980.936279296875,-0.39697265625,-0.076416015625,1.80816650391,0.465393066406,-0.106811523438
1534594028.980.931396484375,-0.396484375,-0.076904296875,1.68609619141,0.434875488281,-0.0152587890625
1534594028.990.937255859375,-0.3994140625,-0.080078125,1.73950195312,0.724792480469,-0.129699707031
1534594028.990.935302734375,-0.401611328125,-0.080078125,1.47247314453,0.42724609375,-0.167846679688
1534594028.990.93408203125,-0.400634765625,-0.075439453125,1.36566162109,0.808715820312,-0.419616699219
1534594028.990.935791015625,-0.400390625,-0.07373046875,1.55639648438,0.335693359375,-0.503540039062
1534594029.00.9345703125,-0.396240234375,-0.081298828125,1.44195556641,0.3662109375,-0.411987304688
1534594029.00.939453125,-0.40234375,-0.079833984375,1.30462646484,0.42724609375,-0.564575195312
1534594029.00.935302734375,-0.40087890625,-0.075927734375,1.50299072266,0.3662109375,-0.694274902344
1534594029.00.938720703125,-0.40087890625,-0.0830078125,1.59454345703,0.473022460938,-0.762939453125
1534594029.010.93359375,-0.398193359375,-0.08056640625,1.39617919922,0.373840332031,-0.42724609375
1534594029.010.935302734375,-0.399169921875,-0.075927734375,1.28173828125,0.526428222656,-0.67138671875
1534594029.010.935302734375,-0.403076171875,-0.076904296875,1.44958496094,0.3662109375,-0.816345214844
1534594029.020.931884765625,-0.4033203125,-0.08544921875,1.24359130859,0.656127929688,-0.556945800781
1534594029.020.935791015625,-0.401611328125,-0.08447265625,1.44195556641,0.79345703125,-0.6103515625
1534594029.020.939453125,-0.404052734375,-0.078369140625,1.15203857422,0.6103515625,-0.335693359375
1534594029.020.938720703125,-0.398193359375,-0.081787109375,1.72424316406,0.30517578125,-0.137329101562
1534594029.030.932861328125,-0.400390625,-0.083984375,1.68609619141,0.617980957031,-0.251770019531
1534594029.030.938232421875,-0.40234375,-0.078857421875,1.71661376953,0.617980957031,-0.343322753906
1534594029.030.93017578125,-0.401123046875,-0.08154296875,1.708984375,0.48828125,-0.236511230469
1534594029.030.93505859375,-0.400146484375,-0.08056640625,1.44958496094,0.724792480469,-0.228881835938
1534594029.040.9365234375,-0.400390625,-0.0810546875,1.68609619141,0.6103515625,-0.160217285156
1534594029.040.9365234375,-0.396484375,-0.081298828125,1.57165527344,0.656127929688,-0.259399414062
1534594029.040.934814453125,-0.398193359375,-0.08056640625,1.5869140625,0.419616699219,-0.205993652344
1534594029.050.93505859375,-0.40087890625,-0.081298828125,1.62506103516,0.434875488281,-0.251770019531
1534594029.050.93603515625,-0.400634765625,-0.08251953125,1.48773193359,0.556945800781,-0.48828125
1534594029.050.932861328125,-0.399169921875,-0.079345703125,1.38854980469,0.617980957031,-0.518798828125
1534594029.060.93505859375,-0.402099609375,-0.07666015625,1.48773193359,0.411987304688,-0.732421875
1534594029.060.933349609375,-0.397216796875,-0.076904296875,1.47247314453,0.480651855469,-0.579833984375
1534594029.060.935302734375,-0.3984375,-0.083740234375,1.66320800781,0.320434570312,-0.694274902344
1534594029.060.9365234375,-0.394775390625,-0.086669921875,1.67083740234,0.541687011719,-0.785827636719
1534594029.070.934814453125,-0.398193359375,-0.080078125,1.47247314453,0.572204589844,-0.785827636719
1534594029.070.938232421875,-0.399169921875,-0.087158203125,1.41143798828,0.358581542969,-0.518798828125
1534594029.070.93798828125,-0.399658203125,-0.083984375,1.42669677734,0.450134277344,-0.442504882812
1534594029.080.93603515625,-0.398681640625,-0.07568359375,1.73950195312,0.54931640625,-0.244140625
1534594029.080.940185546875,-0.400634765625,-0.08056640625,1.38092041016,0.511169433594,-0.205993652344
1534594029.080.938232421875,-0.3974609375,-0.085693359375,1.67846679688,0.770568847656,-0.167846679688
1534594029.080.93798828125,-0.39599609375,-0.08349609375,1.29699707031,0.625610351562,-0.152587890625
1534594029.090.93603515625,-0.39892578125,-0.082275390625,1.5869140625,0.350952148438,0.0381469726562
1534594029.090.935791015625,-0.40087890625,-0.087646484375,1.44195556641,0.556945800781,-0.0152587890625
1534594029.090.93505859375,-0.397705078125,-0.083740234375,1.33514404297,0.740051269531,-0.274658203125
1534594029.090.937255859375,-0.39697265625,-0.085205078125,1.51062011719,0.595092773438,-0.160217285156
1534594029.10.935791015625,-0.39697265625,-0.0830078125,1.42669677734,0.411987304688,-0.259399414062
1534594029.10.93017578125,-0.39892578125,-0.079833984375,1.64031982422,0.617980957031,-0.236511230469
1534594029.10.933837890625,-0.401611328125,-0.083740234375,1.53350830078,0.503540039062,-0.503540039062
1534594029.110.938720703125,-0.403564453125,-0.08544921875,1.43432617188,0.534057617188,-0.42724609375
1534594029.110.93896484375,-0.399658203125,-0.0810546875,1.43432617188,0.869750976562,-0.656127929688
1534594029.110.937744140625,-0.401611328125,-0.07763671875,1.41143798828,0.3662109375,-0.587463378906
1534594029.110.939453125,-0.40234375,-0.0751953125,1.44195556641,0.724792480469,-0.480651855469
1534594029.120.937744140625,-0.4013671875,-0.07373046875,1.45721435547,0.48828125,-0.694274902344
1534594029.120.937744140625,-0.40087890625,-0.0830078125,1.42669677734,0.6103515625,-0.6103515625
1534594029.120.937255859375,-0.399169921875,-0.085693359375,1.22833251953,0.839233398438,-0.434875488281
1534594029.120.937744140625,-0.3984375,-0.0810546875,1.39617919922,0.587463378906,-0.381469726562
1534594029.130.939453125,-0.396484375,-0.078125,1.44958496094,0.457763671875,-0.54931640625
1534594029.130.93798828125,-0.400146484375,-0.08203125,1.57928466797,0.511169433594,-0.694274902344
1534594029.130.941162109375,-0.40283203125,-0.07861328125,1.48773193359,0.534057617188,-0.282287597656
1534594029.130.939697265625,-0.400634765625,-0.075927734375,1.48010253906,0.42724609375,-0.335693359375
1534594029.140.93798828125,-0.400634765625,-0.078857421875,1.75476074219,0.785827636719,-0.152587890625
1534594029.140.936279296875,-0.398193359375,-0.084716796875,1.73187255859,0.289916992188,-0.18310546875
1534594029.140.938232421875,-0.3974609375,-0.086181640625,1.44958496094,0.579833984375,-0.190734863281
1534594029.140.9326171875,-0.39599609375,-0.08203125,1.44958496094,0.335693359375,-0.404357910156
1534594029.150.9375,-0.39990234375,-0.0751953125,1.41906738281,0.6103515625,-0.358581542969
1534594029.150.936279296875,-0.39794921875,-0.082763671875,1.63269042969,0.465393066406,-0.297546386719
1534594029.150.93115234375,-0.3994140625,-0.078857421875,1.48773193359,0.503540039062,-0.144958496094
1534594029.150.931640625,-0.40185546875,-0.081787109375,1.38092041016,0.419616699219,-0.274658203125
1534594029.160.9375,-0.400146484375,-0.08154296875,1.62506103516,0.602722167969,-0.30517578125
1534594029.160.936279296875,-0.39599609375,-0.07861328125,1.64794921875,0.648498535156,-0.282287597656
1534594029.160.934814453125,-0.399169921875,-0.077880859375,1.48010253906,0.640869140625,-0.473022460938
1534594029.160.934326171875,-0.398681640625,-0.082763671875,1.3427734375,0.389099121094,-0.602722167969
1534594029.170.934814453125,-0.397705078125,-0.080810546875,1.35803222656,0.42724609375,-0.885009765625
1534594029.170.9375,-0.398193359375,-0.077392578125,1.54876708984,0.411987304688,-0.534057617188
1534594029.170.9404296875,-0.39990234375,-0.088134765625,1.47247314453,0.411987304688,-1.01470947266
1534594029.170.94189453125,-0.398681640625,-0.080810546875,1.51062011719,0.48828125,-0.457763671875
1534594029.180.93505859375,-0.405029296875,-0.07958984375,1.37329101562,0.465393066406,-0.328063964844
1534594029.180.939208984375,-0.3984375,-0.082763671875,1.40380859375,0.160217285156,-0.534057617188
1534594029.180.941650390625,-0.400390625,-0.082275390625,1.24359130859,0.587463378906,-0.434875488281
1534594029.190.937255859375,-0.398193359375,-0.07958984375,1.5869140625,0.457763671875,-0.48828125
1534594029.190.93896484375,-0.400634765625,-0.07666015625,1.57928466797,0.564575195312,-0.205993652344
1534594029.190.93603515625,-0.39990234375,-0.07373046875,1.92260742188,0.221252441406,-0.419616699219
1534594029.190.935546875,-0.400390625,-0.084716796875,1.56402587891,0.831604003906,-0.160217285156
1534594029.20.937744140625,-0.397705078125,-0.078125,1.67846679688,0.617980957031,-0.167846679688
1534594029.20.93798828125,-0.399658203125,-0.0849609375,1.70135498047,0.663757324219,-0.289916992188
1534594029.20.93798828125,-0.393310546875,-0.084716796875,1.69372558594,0.602722167969,-0.18310546875
1534594029.20.9345703125,-0.400146484375,-0.081298828125,1.5869140625,0.694274902344,-0.190734863281
1534594029.210.937255859375,-0.395751953125,-0.08203125,1.74713134766,0.640869140625,-0.30517578125
1534594029.210.9375,-0.40087890625,-0.080322265625,1.55639648438,0.442504882812,-0.297546386719
1534594029.210.937255859375,-0.3994140625,-0.080810546875,1.57928466797,0.732421875,-0.335693359375
1534594029.210.939453125,-0.40185546875,-0.073974609375,1.54876708984,0.473022460938,-0.54931640625
1534594029.220.935546875,-0.40234375,-0.0751953125,1.47247314453,0.495910644531,-0.572204589844
1534594029.220.935546875,-0.40185546875,-0.077392578125,1.76239013672,0.640869140625,-0.236511230469
1534594029.220.9326171875,-0.3984375,-0.076171875,1.55639648438,0.450134277344,-0.450134277344
1534594029.230.933349609375,-0.3994140625,-0.08154296875,1.33514404297,0.495910644531,-0.518798828125
1534594029.230.936767578125,-0.398193359375,-0.083984375,1.45721435547,0.267028808594,-0.54931640625
1534594029.230.93603515625,-0.40380859375,-0.0810546875,1.51824951172,0.564575195312,-0.579833984375
1534594029.230.93359375,-0.400634765625,-0.0849609375,1.5869140625,0.419616699219,-0.526428222656
1534594029.240.9365234375,-0.40185546875,-0.08154296875,1.54876708984,0.6103515625,-0.480651855469
1534594029.240.934814453125,-0.400390625,-0.084228515625,1.44195556641,0.419616699219,-0.457763671875
1534594029.240.938720703125,-0.40185546875,-0.078125,1.62506103516,0.587463378906,-0.534057617188
1534594029.240.935791015625,-0.39892578125,-0.078369140625,1.57928466797,0.343322753906,-0.343322753906
1534594029.250.9384765625,-0.3994140625,-0.083984375,1.40380859375,0.473022460938,-0.175476074219
1534594029.250.938720703125,-0.40283203125,-0.083740234375,1.5869140625,0.457763671875,-0.297546386719
1534594029.250.93896484375,-0.40380859375,-0.074462890625,1.51824951172,0.587463378906,-0.0991821289062
1534594029.250.933349609375,-0.39697265625,-0.07568359375,1.57928466797,0.770568847656,-0.144958496094
1534594029.260.935791015625,-0.402099609375,-0.085693359375,1.46484375,0.381469726562,-0.343322753906
1534594029.260.93408203125,-0.3984375,-0.074462890625,1.48773193359,0.656127929688,-0.511169433594
1534594029.260.938232421875,-0.4013671875,-0.080078125,1.48010253906,0.534057617188,-0.396728515625
1534594029.260.934326171875,-0.4013671875,-0.078857421875,1.52587890625,0.579833984375,-0.381469726562
1534594029.270.936767578125,-0.3935546875,-0.078857421875,1.30462646484,0.381469726562,-0.381469726562
1534594029.270.93212890625,-0.404052734375,-0.081787109375,1.41906738281,0.755310058594,-0.457763671875
1534594029.270.9365234375,-0.40234375,-0.082275390625,1.25885009766,0.534057617188,-0.67138671875
1534594029.280.936767578125,-0.400390625,-0.079345703125,1.5869140625,0.450134277344,-0.6103515625
1534594029.280.940185546875,-0.4013671875,-0.083251953125,1.28936767578,0.480651855469,-0.862121582031
1534594029.280.936767578125,-0.404296875,-0.0791015625,1.40380859375,0.686645507812,-0.312805175781
1534594029.280.9423828125,-0.400146484375,-0.081298828125,1.56402587891,0.885009765625,-0.6103515625
1534594029.290.93701171875,-0.4013671875,-0.080810546875,1.45721435547,0.534057617188,-0.434875488281
1534594029.290.93994140625,-0.3974609375,-0.079833984375,1.48010253906,0.411987304688,-0.54931640625
1534594029.290.931884765625,-0.40234375,-0.080810546875,1.54876708984,0.442504882812,-0.526428222656
1534594029.290.9375,-0.399169921875,-0.080810546875,1.40380859375,0.564575195312,-0.473022460938
1534594029.30.936767578125,-0.399169921875,-0.07763671875,1.73950195312,0.442504882812,-0.137329101562
1534594029.30.936767578125,-0.401123046875,-0.080322265625,1.37329101562,0.396728515625,-0.205993652344
1534594029.30.933837890625,-0.398193359375,-0.08349609375,1.70135498047,0.694274902344,-0.251770019531
1534594029.30.9345703125,-0.39599609375,-0.078857421875,1.50299072266,0.335693359375,-0.312805175781
1534594029.310.935791015625,-0.400146484375,-0.080810546875,1.47247314453,0.595092773438,-0.297546386719
1534594029.310.933837890625,-0.400390625,-0.08154296875,1.57165527344,0.373840332031,-0.381469726562
1534594029.310.93798828125,-0.397216796875,-0.08203125,1.5869140625,0.648498535156,-0.343322753906
1534594029.320.938232421875,-0.397705078125,-0.077392578125,1.49536132812,0.358581542969,-0.0228881835938
1534594029.320.934814453125,-0.3974609375,-0.08251953125,1.47247314453,0.396728515625,-0.335693359375
1534594029.320.9345703125,-0.399169921875,-0.082763671875,1.60217285156,0.633239746094,-0.320434570312
1534594029.320.938232421875,-0.40380859375,-0.079833984375,1.49536132812,0.328063964844,-0.465393066406
1534594029.330.93310546875,-0.401123046875,-0.079833984375,1.55639648438,0.511169433594,-0.328063964844
1534594029.330.9404296875,-0.40087890625,-0.07958984375,1.49536132812,0.541687011719,-0.633239746094
1534594029.330.933837890625,-0.399658203125,-0.08447265625,1.52587890625,0.556945800781,-0.381469726562
1534594029.330.93212890625,-0.39892578125,-0.08154296875,1.48773193359,0.495910644531,-0.228881835938
1534594029.340.936279296875,-0.39892578125,-0.083740234375,1.59454345703,0.694274902344,-0.572204589844
1534594029.340.933837890625,-0.4013671875,-0.0830078125,1.38854980469,0.595092773438,-0.67138671875
1534594029.340.933837890625,-0.398681640625,-0.08837890625,1.43432617188,0.633239746094,-0.511169433594
1534594029.350.93505859375,-0.3984375,-0.077880859375,1.40380859375,0.396728515625,-0.633239746094
1534594029.350.93310546875,-0.4033203125,-0.082275390625,1.67083740234,0.679016113281,-0.274658203125
1534594029.350.937255859375,-0.40087890625,-0.08154296875,1.35803222656,0.717163085938,-0.175476074219
1534594029.350.93798828125,-0.4033203125,-0.07763671875,1.35803222656,0.511169433594,-0.228881835938
1534594029.360.936767578125,-0.4013671875,-0.078125,1.73187255859,0.556945800781,-0.175476074219
1534594029.360.935546875,-0.3984375,-0.080078125,1.46484375,0.633239746094,-0.213623046875
1534594029.360.9365234375,-0.401123046875,-0.079345703125,1.89971923828,0.434875488281,-0.244140625
1534594029.360.937744140625,-0.4013671875,-0.087890625,1.40380859375,0.541687011719,-0.511169433594
1534594029.370.93505859375,-0.40185546875,-0.077392578125,1.71661376953,0.503540039062,-0.396728515625
1534594029.370.935302734375,-0.402587890625,-0.0810546875,1.48010253906,0.625610351562,-0.42724609375
1534594029.370.935302734375,-0.400634765625,-0.08203125,1.64794921875,0.617980957031,-0.358581542969
1534594029.370.9375,-0.399169921875,-0.079345703125,1.23596191406,0.679016113281,-0.396728515625
1534594029.380.9345703125,-0.39990234375,-0.082763671875,1.48773193359,0.358581542969,-0.816345214844
1534594029.380.931884765625,-0.40234375,-0.079345703125,1.57928466797,0.656127929688,-0.640869140625
1534594029.380.93505859375,-0.40087890625,-0.078369140625,1.35803222656,0.404357910156,-0.42724609375
1534594029.380.9345703125,-0.401611328125,-0.083984375,1.50299072266,0.404357910156,-0.640869140625
1534594029.390.9345703125,-0.39990234375,-0.083740234375,1.42669677734,0.495910644531,-0.633239746094
1534594029.390.93408203125,-0.40380859375,-0.080810546875,1.48773193359,0.419616699219,-0.762939453125
1534594029.390.935546875,-0.402099609375,-0.078125,1.61743164062,0.579833984375,-0.534057617188
1534594029.390.939453125,-0.4072265625,-0.08056640625,1.31988525391,0.511169433594,-0.312805175781
1534594029.40.9326171875,-0.403076171875,-0.084716796875,1.35803222656,0.541687011719,-0.564575195312
1534594029.40.93603515625,-0.400634765625,-0.080322265625,1.32751464844,0.373840332031,-0.518798828125
1534594029.40.933837890625,-0.39990234375,-0.078857421875,1.56402587891,0.442504882812,-0.396728515625
1534594029.410.9365234375,-0.39794921875,-0.082275390625,1.26647949219,0.556945800781,-0.335693359375
1534594029.410.9375,-0.40234375,-0.08154296875,1.60217285156,0.6103515625,-0.473022460938
1534594029.410.932861328125,-0.396484375,-0.07763671875,1.46484375,0.434875488281,-0.320434570312
1534594029.410.93505859375,-0.399169921875,-0.079833984375,1.67083740234,0.579833984375,-0.350952148438
1534594029.420.93603515625,-0.405517578125,-0.0849609375,1.41143798828,0.350952148438,-0.389099121094
1534594029.420.938232421875,-0.399658203125,-0.077880859375,1.53350830078,0.335693359375,-0.389099121094
1534594029.420.936279296875,-0.400634765625,-0.0849609375,1.36566162109,0.48828125,-0.801086425781
1534594029.420.935791015625,-0.40185546875,-0.076416015625,1.48773193359,0.244140625,-0.251770019531
1534594029.430.937744140625,-0.401123046875,-0.080078125,1.3427734375,0.419616699219,-0.602722167969
1534594029.430.940673828125,-0.3984375,-0.079833984375,1.35040283203,0.579833984375,-0.358581542969
1534594029.430.935302734375,-0.39501953125,-0.083251953125,1.33514404297,0.534057617188,-0.709533691406
1534594029.430.935546875,-0.40087890625,-0.079833984375,1.45721435547,0.328063964844,-0.404357910156
1534594029.440.93505859375,-0.4033203125,-0.076171875,1.38092041016,0.465393066406,-0.404357910156
1534594029.440.9384765625,-0.400634765625,-0.08203125,1.44195556641,0.587463378906,-0.503540039062
1534594029.440.936767578125,-0.399658203125,-0.075927734375,1.38092041016,0.633239746094,-0.473022460938
1534594029.440.935791015625,-0.3974609375,-0.080078125,1.44958496094,0.373840332031,-0.396728515625
1534594029.450.93994140625,-0.39599609375,-0.08203125,1.44195556641,0.633239746094,-0.190734863281
1534594029.450.937744140625,-0.39892578125,-0.08056640625,1.52587890625,0.740051269531,-0.328063964844
1534594029.450.940673828125,-0.400146484375,-0.07958984375,1.5869140625,0.350952148438,-0.54931640625
1534594029.450.93896484375,-0.4013671875,-0.080078125,1.46484375,0.335693359375,-0.335693359375
1534594029.460.9375,-0.398193359375,-0.079833984375,1.62506103516,0.42724609375,-0.289916992188
1534594029.460.9365234375,-0.398681640625,-0.0771484375,1.63269042969,0.419616699219,-0.350952148438
1534594029.460.9404296875,-0.400634765625,-0.0810546875,1.47247314453,0.663757324219,-0.167846679688
1534594029.470.935546875,-0.399658203125,-0.080810546875,1.63269042969,0.740051269531,-0.297546386719
1534594029.470.9365234375,-0.3974609375,-0.07470703125,1.51824951172,0.541687011719,-0.213623046875
1534594029.470.935302734375,-0.39697265625,-0.081298828125,1.57928466797,0.572204589844,-0.3662109375
1534594029.470.93896484375,-0.39501953125,-0.0791015625,1.54113769531,0.679016113281,-0.396728515625
1534594029.480.93505859375,-0.4033203125,-0.080078125,1.44958496094,0.411987304688,-0.198364257812
1534594029.480.937744140625,-0.396728515625,-0.08154296875,1.53350830078,0.679016113281,-0.320434570312
1534594029.480.934326171875,-0.3994140625,-0.08447265625,1.40380859375,0.297546386719,-0.404357910156
1534594029.490.9384765625,-0.402099609375,-0.075439453125,1.45721435547,0.640869140625,-0.534057617188
1534594029.490.939208984375,-0.400634765625,-0.080322265625,1.60217285156,0.3662109375,-0.465393066406
1534594029.490.935302734375,-0.402587890625,-0.075927734375,1.43432617188,0.564575195312,-0.48828125
1534594029.490.939697265625,-0.39599609375,-0.080078125,1.64794921875,0.595092773438,-0.473022460938
1534594029.50.933349609375,-0.40283203125,-0.080322265625,1.25122070312,0.503540039062,-0.411987304688
1534594029.50.93310546875,-0.3974609375,-0.081298828125,1.3427734375,0.411987304688,-0.434875488281
1534594029.50.93798828125,-0.3984375,-0.078857421875,1.57165527344,0.419616699219,-0.396728515625
1534594029.50.938232421875,-0.399169921875,-0.081787109375,1.60980224609,0.473022460938,-0.3662109375
1534594029.510.93603515625,-0.399658203125,-0.08056640625,1.50299072266,0.495910644531,-0.67138671875
1534594029.510.93115234375,-0.4013671875,-0.08447265625,1.35040283203,0.297546386719,-0.175476074219
1534594029.510.936279296875,-0.396728515625,-0.08203125,1.5869140625,0.267028808594,-0.457763671875
1534594029.510.936279296875,-0.39892578125,-0.089111328125,1.48010253906,0.541687011719,-0.373840332031
1534594029.520.93798828125,-0.39990234375,-0.080322265625,1.76239013672,0.335693359375,-0.0534057617188
1534594029.520.933837890625,-0.396240234375,-0.07861328125,1.31225585938,0.709533691406,-0.495910644531
1534594029.520.9404296875,-0.39892578125,-0.076904296875,1.53350830078,0.450134277344,-0.274658203125
1534594029.520.933837890625,-0.397216796875,-0.082763671875,1.57165527344,0.274658203125,-0.404357910156
1534594029.530.932861328125,-0.397705078125,-0.075927734375,1.46484375,0.526428222656,-0.396728515625
1534594029.530.93408203125,-0.3974609375,-0.085205078125,1.52587890625,0.411987304688,-0.556945800781
1534594029.530.93798828125,-0.39599609375,-0.084228515625,1.48010253906,0.42724609375,-0.450134277344
1534594029.540.934814453125,-0.4033203125,-0.080322265625,1.48010253906,0.480651855469,-0.343322753906
1534594029.540.938232421875,-0.399658203125,-0.083984375,1.65557861328,0.6103515625,-0.625610351562
1534594029.540.935546875,-0.397705078125,-0.08056640625,1.35803222656,0.205993652344,-0.0991821289062
1534594029.540.9384765625,-0.3984375,-0.083740234375,1.54113769531,0.587463378906,-0.518798828125
1534594029.550.938720703125,-0.401611328125,-0.087890625,1.28173828125,0.67138671875,-0.328063964844
1534594029.550.938720703125,-0.40380859375,-0.080322265625,1.39617919922,0.42724609375,-0.648498535156
1534594029.550.934814453125,-0.399658203125,-0.081298828125,1.41906738281,0.419616699219,-0.396728515625
1534594029.550.93408203125,-0.395751953125,-0.07861328125,1.51062011719,0.564575195312,-0.267028808594
1534594029.560.937255859375,-0.398681640625,-0.0791015625,1.59454345703,0.640869140625,-0.54931640625
1534594029.560.933349609375,-0.39990234375,-0.08544921875,1.77001953125,0.389099121094,-0.495910644531
1534594029.560.933349609375,-0.399169921875,-0.080810546875,1.64794921875,0.503540039062,-0.434875488281
1534594029.570.938232421875,-0.398681640625,-0.0732421875,1.41906738281,0.335693359375,-0.511169433594
1534594029.570.936279296875,-0.40234375,-0.083984375,1.54113769531,0.473022460938,-0.518798828125
1534594029.570.93603515625,-0.40087890625,-0.081298828125,1.5869140625,0.709533691406,-0.419616699219
1534594029.570.938232421875,-0.3984375,-0.0849609375,1.67846679688,0.556945800781,-0.358581542969
1534594029.580.9404296875,-0.400390625,-0.08203125,1.42669677734,0.572204589844,-0.381469726562
1534594029.580.935302734375,-0.40185546875,-0.081787109375,1.5869140625,0.465393066406,-0.251770019531
1534594029.580.939208984375,-0.3984375,-0.084716796875,1.38854980469,0.396728515625,-0.480651855469
1534594029.580.935791015625,-0.399169921875,-0.08447265625,1.57928466797,0.450134277344,-0.320434570312
1534594029.590.937255859375,-0.397216796875,-0.082275390625,1.46484375,0.465393066406,-0.30517578125
1534594029.590.938232421875,-0.396728515625,-0.083984375,1.56402587891,0.6103515625,-0.54931640625
1534594029.590.93408203125,-0.400634765625,-0.078857421875,1.60217285156,0.381469726562,-0.236511230469
1534594029.590.938720703125,-0.39990234375,-0.075927734375,1.48010253906,0.335693359375,-0.297546386719
1534594029.60.935546875,-0.3994140625,-0.078125,1.57165527344,0.686645507812,-0.358581542969
1534594029.60.93896484375,-0.400146484375,-0.073974609375,1.42669677734,0.526428222656,-0.259399414062
1534594029.60.9404296875,-0.39892578125,-0.0810546875,1.33514404297,0.595092773438,-0.358581542969
1534594029.610.93603515625,-0.401123046875,-0.08203125,1.33514404297,0.373840332031,-0.259399414062
1534594029.610.93603515625,-0.401611328125,-0.088134765625,1.19018554688,0.579833984375,-0.617980957031
1534594029.610.9345703125,-0.39990234375,-0.08056640625,1.69372558594,0.648498535156,-0.389099121094
1534594029.610.937255859375,-0.394287109375,-0.07958984375,1.46484375,0.595092773438,-0.30517578125
1534594029.620.9365234375,-0.398193359375,-0.0732421875,1.44958496094,0.617980957031,-0.30517578125
1534594029.620.9365234375,-0.396484375,-0.082275390625,1.72424316406,0.717163085938,-0.358581542969
1534594029.620.935302734375,-0.40185546875,-0.077880859375,1.31988525391,0.274658203125,-0.343322753906
1534594029.620.936767578125,-0.40380859375,-0.080810546875,1.48010253906,0.434875488281,-0.381469726562
1534594029.630.934326171875,-0.400390625,-0.079345703125,1.47247314453,0.465393066406,-0.495910644531
1534594029.630.937744140625,-0.40234375,-0.074951171875,1.57165527344,0.511169433594,-0.6103515625
1534594029.630.93798828125,-0.403076171875,-0.083984375,1.51062011719,0.42724609375,-0.450134277344
1534594029.630.93212890625,-0.404296875,-0.0830078125,1.42669677734,0.251770019531,-0.350952148438
1534594029.640.93603515625,-0.397216796875,-0.0810546875,1.31988525391,0.511169433594,-0.259399414062
1534594029.640.934814453125,-0.398681640625,-0.072265625,1.50299072266,0.587463378906,-0.343322753906
1534594029.640.9365234375,-0.4052734375,-0.081787109375,1.32751464844,0.724792480469,-0.335693359375
1534594029.640.934814453125,-0.40380859375,-0.0869140625,1.41906738281,0.457763671875,-0.213623046875
1534594029.650.937744140625,-0.402587890625,-0.080078125,1.55639648438,0.617980957031,-0.434875488281
1534594029.650.935791015625,-0.398193359375,-0.0859375,1.52587890625,0.404357910156,-0.30517578125
1534594029.650.936279296875,-0.400634765625,-0.080078125,1.33514404297,0.465393066406,-0.450134277344
1534594029.650.935302734375,-0.40625,-0.079833984375,1.38092041016,0.411987304688,-0.480651855469
1534594029.660.936279296875,-0.399658203125,-0.08203125,1.30462646484,0.312805175781,-0.389099121094
1534594029.660.935546875,-0.400146484375,-0.0791015625,1.61743164062,0.534057617188,-0.450134277344
1534594029.660.932373046875,-0.3994140625,-0.08203125,1.51062011719,0.663757324219,-0.18310546875
1534594029.660.935791015625,-0.40087890625,-0.0830078125,1.41906738281,0.411987304688,-0.656127929688
1534594029.670.936767578125,-0.405517578125,-0.084716796875,1.44958496094,0.534057617188,-0.48828125
1534594029.670.93310546875,-0.396240234375,-0.08349609375,1.74713134766,0.648498535156,-0.373840332031
1534594029.670.933837890625,-0.39599609375,-0.077392578125,1.38854980469,0.679016113281,-0.617980957031
1534594029.680.93603515625,-0.400390625,-0.077392578125,1.41906738281,0.67138671875,-0.503540039062
1534594029.680.93896484375,-0.3994140625,-0.081787109375,1.55639648438,0.701904296875,-0.495910644531
1534594029.680.93505859375,-0.397705078125,-0.087646484375,1.67083740234,0.511169433594,-0.450134277344
1534594029.680.941162109375,-0.398681640625,-0.07763671875,1.5869140625,0.526428222656,-0.152587890625
1534594029.690.936767578125,-0.39990234375,-0.08935546875,1.55639648438,0.556945800781,-0.6103515625
1534594029.690.933837890625,-0.397216796875,-0.080322265625,1.39617919922,0.556945800781,-0.358581542969
1534594029.690.938720703125,-0.401123046875,-0.082763671875,1.66320800781,0.541687011719,-0.419616699219
1534594029.690.93408203125,-0.399658203125,-0.082275390625,1.57928466797,0.541687011719,-0.350952148438
1534594029.70.936767578125,-0.39697265625,-0.0810546875,1.44958496094,0.434875488281,-0.312805175781
1534594029.70.934326171875,-0.399658203125,-0.079345703125,1.43432617188,0.518798828125,-0.526428222656
1534594029.70.93603515625,-0.39990234375,-0.086669921875,1.49536132812,0.465393066406,-0.389099121094
1534594029.70.9375,-0.400146484375,-0.082763671875,1.36566162109,0.511169433594,-0.335693359375
1534594029.710.936767578125,-0.396484375,-0.084716796875,1.54113769531,0.640869140625,-0.6103515625
1534594029.710.936279296875,-0.395263671875,-0.08349609375,1.51062011719,0.511169433594,-0.282287597656
1534594029.710.936279296875,-0.398193359375,-0.083984375,1.39617919922,0.358581542969,-0.473022460938
1534594029.710.935546875,-0.39892578125,-0.07958984375,1.57928466797,0.54931640625,-0.236511230469
1534594029.720.9384765625,-0.40283203125,-0.080078125,1.42669677734,0.450134277344,-0.457763671875
1534594029.720.936767578125,-0.400390625,-0.08349609375,1.35803222656,0.541687011719,-0.640869140625
1534594029.720.939208984375,-0.395751953125,-0.08203125,1.36566162109,0.3662109375,-0.656127929688
1534594029.730.936279296875,-0.398193359375,-0.080078125,1.53350830078,0.6103515625,-0.389099121094
1534594029.730.93798828125,-0.3994140625,-0.078369140625,1.57928466797,0.373840332031,-0.465393066406
1534594029.730.934814453125,-0.399169921875,-0.082275390625,1.51062011719,0.694274902344,-0.465393066406
1534594029.730.93701171875,-0.3974609375,-0.07861328125,1.52587890625,0.541687011719,-0.404357910156
1534594029.740.93798828125,-0.397705078125,-0.083251953125,1.51062011719,0.404357910156,-0.343322753906
1534594029.740.938720703125,-0.402099609375,-0.07568359375,1.57928466797,0.373840332031,-0.228881835938
1534594029.740.935302734375,-0.400634765625,-0.085205078125,1.51062011719,0.473022460938,-0.251770019531
1534594029.750.938720703125,-0.39990234375,-0.080322265625,1.72424316406,0.946044921875,-0.350952148438
1534594029.750.93798828125,-0.401123046875,-0.079833984375,1.54113769531,0.602722167969,-0.213623046875
1534594029.750.936767578125,-0.403564453125,-0.08154296875,1.60980224609,0.457763671875,-0.251770019531
1534594029.750.93701171875,-0.400634765625,-0.076171875,1.38854980469,0.54931640625,-0.54931640625
1534594029.760.936279296875,-0.40283203125,-0.078857421875,1.41906738281,0.640869140625,-0.42724609375
1534594029.760.932373046875,-0.399658203125,-0.077392578125,1.5869140625,0.541687011719,-0.396728515625
1534594029.760.93310546875,-0.40380859375,-0.081787109375,1.65557861328,0.541687011719,-0.389099121094
1534594029.760.933837890625,-0.400390625,-0.076416015625,1.44195556641,0.686645507812,-0.320434570312
1534594029.770.93798828125,-0.397705078125,-0.08251953125,1.57165527344,0.335693359375,-0.282287597656
1534594029.770.937255859375,-0.400146484375,-0.082275390625,1.64794921875,0.328063964844,-0.640869140625
1534594029.770.93115234375,-0.3994140625,-0.08349609375,1.62506103516,0.579833984375,-0.381469726562
1534594029.770.9365234375,-0.403564453125,-0.08349609375,1.40380859375,0.564575195312,-0.297546386719
1534594029.780.93701171875,-0.397705078125,-0.084228515625,1.41143798828,0.663757324219,-0.48828125
1534594029.780.93603515625,-0.405029296875,-0.0869140625,1.38854980469,0.617980957031,-0.541687011719
1534594029.780.93408203125,-0.3994140625,-0.07763671875,1.55639648438,0.556945800781,-0.602722167969
1534594029.780.9384765625,-0.401123046875,-0.080322265625,1.48773193359,0.396728515625,-0.198364257812
1534594029.790.936767578125,-0.40625,-0.078125,1.52587890625,0.480651855469,-0.411987304688
1534594029.790.93505859375,-0.398193359375,-0.08251953125,1.56402587891,0.709533691406,-0.67138671875
1534594029.790.94140625,-0.39794921875,-0.084716796875,1.46484375,0.617980957031,-0.312805175781
1534594029.80.938232421875,-0.397705078125,-0.086181640625,1.62506103516,0.48828125,-0.480651855469
1534594029.80.935791015625,-0.3984375,-0.079833984375,1.54113769531,0.419616699219,-0.541687011719
1534594029.80.93701171875,-0.39404296875,-0.0849609375,1.67846679688,0.30517578125,-0.30517578125
1534594029.80.9365234375,-0.39892578125,-0.076171875,1.43432617188,0.8544921875,-0.419616699219
1534594029.810.937255859375,-0.395751953125,-0.08544921875,1.60980224609,0.465393066406,-0.335693359375
1534594029.810.9384765625,-0.403564453125,-0.07958984375,1.29699707031,0.473022460938,-0.404357910156
1534594029.810.935791015625,-0.3955078125,-0.07470703125,1.61743164062,0.534057617188,-0.144958496094
1534594029.810.933349609375,-0.401611328125,-0.0810546875,1.48010253906,0.343322753906,-0.205993652344
1534594029.820.936767578125,-0.398193359375,-0.073486328125,1.43432617188,0.602722167969,-0.518798828125
1534594029.820.936279296875,-0.39794921875,-0.075439453125,1.19018554688,0.640869140625,-0.419616699219
1534594029.820.939208984375,-0.4013671875,-0.078369140625,1.38854980469,0.564575195312,-0.213623046875
1534594029.820.9365234375,-0.398681640625,-0.07421875,1.54113769531,0.534057617188,-0.534057617188
1534594029.830.935546875,-0.397216796875,-0.082763671875,1.708984375,0.602722167969,-0.511169433594
1534594029.830.93505859375,-0.398193359375,-0.0849609375,1.33514404297,0.411987304688,-0.381469726562
1534594029.830.93408203125,-0.398681640625,-0.07861328125,1.49536132812,0.701904296875,-0.457763671875
1534594029.840.9375,-0.39501953125,-0.079833984375,1.40380859375,0.358581542969,-0.3662109375
1534594029.840.938720703125,-0.399169921875,-0.08447265625,1.45721435547,0.640869140625,-0.579833984375
1534594029.840.93603515625,-0.39892578125,-0.081787109375,1.33514404297,0.747680664062,-0.541687011719
1534594029.840.93701171875,-0.401123046875,-0.086669921875,1.52587890625,0.465393066406,-0.312805175781
1534594029.850.936767578125,-0.39697265625,-0.08056640625,1.40380859375,0.396728515625,-0.434875488281
1534594029.850.935791015625,-0.403564453125,-0.083251953125,1.57165527344,0.511169433594,-0.404357910156
1534594029.850.9345703125,-0.403076171875,-0.083251953125,1.60217285156,0.465393066406,-0.724792480469
1534594029.850.93701171875,-0.397705078125,-0.077392578125,1.48773193359,0.6103515625,-0.18310546875
1534594029.860.93994140625,-0.398681640625,-0.084228515625,1.59454345703,0.358581542969,-0.625610351562
1534594029.860.93701171875,-0.39794921875,-0.080322265625,1.69372558594,0.587463378906,-0.213623046875
1534594029.870.93603515625,-0.3994140625,-0.075439453125,1.64794921875,0.564575195312,-0.335693359375
1534594029.870.9345703125,-0.39990234375,-0.079345703125,1.49536132812,0.350952148438,-0.411987304688
1534594029.870.93212890625,-0.39794921875,-0.080078125,1.48010253906,0.434875488281,-0.335693359375
1534594029.870.937255859375,-0.401611328125,-0.07861328125,1.74713134766,0.358581542969,-0.404357910156
1534594029.880.936279296875,-0.39990234375,-0.082275390625,1.55639648438,0.373840332031,-0.335693359375
1534594029.880.937255859375,-0.39794921875,-0.08251953125,1.36566162109,0.373840332031,-0.396728515625
1534594029.880.937255859375,-0.399169921875,-0.08740234375,1.51062011719,0.564575195312,-0.442504882812
1534594029.880.9375,-0.400390625,-0.084228515625,1.80053710938,0.328063964844,-0.465393066406
1534594029.890.9384765625,-0.399169921875,-0.08154296875,1.56402587891,0.465393066406,-0.526428222656
1534594029.890.93603515625,-0.401611328125,-0.07763671875,1.41143798828,0.495910644531,-0.381469726562
1534594029.890.93212890625,-0.397705078125,-0.07958984375,1.47247314453,0.595092773438,-0.541687011719
1534594029.890.93798828125,-0.400634765625,-0.08154296875,1.50299072266,0.473022460938,-0.579833984375
1534594029.90.938720703125,-0.40478515625,-0.077880859375,1.51062011719,0.518798828125,-0.48828125
1534594029.90.93310546875,-0.401611328125,-0.081298828125,1.23596191406,0.48828125,-0.686645507812
1534594029.90.937255859375,-0.402099609375,-0.086669921875,1.59454345703,0.694274902344,-0.198364257812
1534594029.90.93798828125,-0.399169921875,-0.07666015625,1.32751464844,0.54931640625,-0.450134277344
1534594029.910.9345703125,-0.396484375,-0.081298828125,1.46484375,0.343322753906,-0.419616699219
1534594029.910.936279296875,-0.3984375,-0.082275390625,1.53350830078,0.572204589844,-0.534057617188
1534594029.910.93603515625,-0.399169921875,-0.086669921875,1.38092041016,0.358581542969,-0.328063964844
1534594029.910.935791015625,-0.399169921875,-0.078857421875,1.57928466797,0.411987304688,-0.541687011719
1534594029.920.9345703125,-0.4013671875,-0.084716796875,1.48010253906,0.572204589844,-0.236511230469
1534594029.920.93310546875,-0.39892578125,-0.077392578125,1.37329101562,0.434875488281,-0.137329101562
1534594029.920.935546875,-0.399658203125,-0.082275390625,1.56402587891,0.648498535156,-0.289916992188
1534594029.920.934814453125,-0.3974609375,-0.0810546875,1.51824951172,0.617980957031,-0.411987304688
1534594029.930.935546875,-0.395751953125,-0.07373046875,1.46484375,0.541687011719,-0.228881835938
1534594029.930.939208984375,-0.400634765625,-0.07861328125,1.59454345703,0.778198242188,-0.617980957031
1534594029.930.9404296875,-0.3994140625,-0.08056640625,1.03759765625,0.526428222656,-0.389099121094
1534594029.930.937744140625,-0.400634765625,-0.076171875,1.47247314453,0.518798828125,-0.465393066406
1534594029.940.93603515625,-0.398681640625,-0.08056640625,1.35040283203,0.579833984375,-0.373840332031
1534594029.940.93701171875,-0.398193359375,-0.08349609375,1.53350830078,0.587463378906,-0.625610351562
1534594029.940.940185546875,-0.400390625,-0.07958984375,1.52587890625,0.358581542969,-0.312805175781
1534594029.950.935302734375,-0.401611328125,-0.0849609375,1.40380859375,0.465393066406,-0.717163085938
1534594029.950.93798828125,-0.397705078125,-0.074951171875,1.64031982422,0.434875488281,-0.335693359375
1534594029.950.935302734375,-0.398193359375,-0.078125,1.44958496094,0.320434570312,-0.511169433594
1534594029.950.939208984375,-0.396240234375,-0.07568359375,1.65557861328,0.434875488281,-0.724792480469
1534594029.960.93603515625,-0.39990234375,-0.08056640625,1.41906738281,0.617980957031,-0.389099121094
1534594029.960.93505859375,-0.39794921875,-0.076904296875,1.33514404297,0.503540039062,-0.381469726562
1534594029.960.941162109375,-0.398681640625,-0.083251953125,1.51824951172,0.411987304688,-0.328063964844
1534594029.960.93603515625,-0.3974609375,-0.083251953125,1.44958496094,0.846862792969,-0.396728515625
1534594029.970.93701171875,-0.398193359375,-0.079833984375,1.52587890625,0.396728515625,-0.511169433594
1534594029.970.9345703125,-0.39990234375,-0.08349609375,1.47247314453,0.190734863281,-0.205993652344
1534594029.970.93798828125,-0.3994140625,-0.07861328125,1.59454345703,0.343322753906,-0.389099121094
1534594029.980.93798828125,-0.39990234375,-0.072509765625,1.39617919922,0.564575195312,-0.350952148438
1534594029.980.937744140625,-0.399169921875,-0.076416015625,1.73950195312,0.8544921875,-0.18310546875
1534594029.980.934326171875,-0.398193359375,-0.084228515625,1.57165527344,0.251770019531,-0.282287597656
1534594029.980.932861328125,-0.40185546875,-0.078857421875,1.63269042969,0.450134277344,-0.244140625
1534594029.990.932373046875,-0.402099609375,-0.0791015625,1.28173828125,0.503540039062,-0.556945800781
1534594029.990.932373046875,-0.401611328125,-0.08056640625,1.65557861328,0.350952148438,-0.434875488281
1534594029.990.933837890625,-0.395751953125,-0.07373046875,1.50299072266,0.67138671875,-0.404357910156
1534594029.990.93505859375,-0.40185546875,-0.074951171875,1.54876708984,0.564575195312,-0.473022460938
1534594030.00.932861328125,-0.4013671875,-0.07958984375,1.35803222656,0.350952148438,-0.389099121094
1534594030.00.9375,-0.3994140625,-0.0888671875,1.26647949219,0.419616699219,-0.442504882812
1534594030.00.938232421875,-0.39990234375,-0.084716796875,1.77764892578,0.18310546875,-0.3662109375
1534594030.010.9375,-0.40478515625,-0.08251953125,1.57928466797,0.480651855469,-0.289916992188
1534594030.010.93359375,-0.401611328125,-0.079833984375,1.31225585938,0.434875488281,-0.389099121094
1534594030.010.933349609375,-0.399169921875,-0.084716796875,1.62506103516,0.54931640625,-0.473022460938
1534594030.010.934814453125,-0.404052734375,-0.080078125,1.48010253906,0.633239746094,-0.511169433594
1534594030.020.936279296875,-0.401611328125,-0.07958984375,1.51062011719,0.6103515625,-0.312805175781
1534594030.020.93310546875,-0.40185546875,-0.075439453125,1.5869140625,0.572204589844,-0.42724609375
1534594030.020.935546875,-0.3984375,-0.07763671875,1.60980224609,0.373840332031,-0.328063964844
1534594030.030.9365234375,-0.399169921875,-0.08740234375,1.48010253906,0.534057617188,-0.381469726562
1534594030.030.93798828125,-0.39599609375,-0.076416015625,1.41906738281,0.473022460938,-0.320434570312
1534594030.030.93994140625,-0.39990234375,-0.078857421875,1.46484375,0.518798828125,-0.320434570312
1534594030.040.93505859375,-0.402587890625,-0.078369140625,1.57165527344,0.67138671875,-0.267028808594
1534594030.040.934814453125,-0.39794921875,-0.078857421875,1.57928466797,0.587463378906,-0.205993652344
1534594030.040.935302734375,-0.400634765625,-0.081787109375,1.35803222656,0.79345703125,-0.450134277344
1534594030.050.932861328125,-0.3974609375,-0.078857421875,1.60980224609,0.595092773438,-0.244140625
1534594030.050.93505859375,-0.398681640625,-0.083740234375,1.25885009766,0.465393066406,-0.213623046875
1534594030.050.935546875,-0.403076171875,-0.078857421875,1.44195556641,0.312805175781,-0.67138671875
1534594030.050.9365234375,-0.40283203125,-0.074462890625,1.62506103516,0.473022460938,-0.526428222656
1534594030.060.935546875,-0.39892578125,-0.079833984375,1.43432617188,0.350952148438,-0.54931640625
1534594030.060.934814453125,-0.397705078125,-0.081298828125,1.60217285156,0.373840332031,-0.572204589844
1534594030.060.936767578125,-0.3955078125,-0.085205078125,1.64031982422,0.343322753906,-0.694274902344
1534594030.060.94140625,-0.396484375,-0.0751953125,1.45721435547,0.663757324219,-0.556945800781
1534594030.070.93798828125,-0.401611328125,-0.080322265625,1.32751464844,0.572204589844,-0.396728515625
1534594030.070.938720703125,-0.39697265625,-0.080322265625,1.55639648438,0.442504882812,-0.495910644531
1534594030.070.937255859375,-0.40283203125,-0.082275390625,1.46484375,0.572204589844,-0.457763671875
1534594030.070.937255859375,-0.39599609375,-0.08544921875,1.28173828125,0.457763671875,-0.656127929688
1534594030.080.933349609375,-0.4033203125,-0.078369140625,1.38092041016,0.518798828125,-0.343322753906
1534594030.080.938232421875,-0.400146484375,-0.081298828125,1.55639648438,0.320434570312,-0.404357910156
1534594030.080.9384765625,-0.39990234375,-0.084228515625,1.43432617188,0.511169433594,-0.175476074219
1534594030.090.934326171875,-0.3974609375,-0.07568359375,1.60980224609,0.717163085938,-0.48828125
1534594030.090.93505859375,-0.398193359375,-0.0771484375,1.31988525391,0.518798828125,-0.213623046875
1534594030.090.939697265625,-0.3984375,-0.079345703125,1.708984375,0.648498535156,-0.419616699219
1534594030.090.934326171875,-0.3984375,-0.082763671875,1.60980224609,0.679016113281,-0.534057617188
1534594030.10.941650390625,-0.39599609375,-0.077880859375,1.66320800781,0.411987304688,-0.175476074219
1534594030.10.9345703125,-0.396728515625,-0.07763671875,1.48773193359,0.3662109375,-0.518798828125
1534594030.10.9345703125,-0.3984375,-0.0859375,1.76239013672,0.48828125,-0.251770019531
1534594030.110.936279296875,-0.399658203125,-0.08740234375,1.26647949219,0.564575195312,-0.450134277344
1534594030.110.934326171875,-0.4052734375,-0.086181640625,1.70135498047,0.495910644531,-0.526428222656
1534594030.110.93603515625,-0.39892578125,-0.080322265625,1.64794921875,0.48828125,-0.503540039062
1534594030.110.9345703125,-0.397705078125,-0.08056640625,1.64031982422,0.465393066406,-0.442504882812
1534594030.120.935302734375,-0.398193359375,-0.087158203125,1.37329101562,0.701904296875,-0.373840332031
1534594030.120.937255859375,-0.39892578125,-0.08251953125,1.41906738281,0.526428222656,-0.495910644531
1534594030.120.938232421875,-0.400146484375,-0.078857421875,1.47247314453,0.595092773438,-0.48828125
1534594030.130.938232421875,-0.39892578125,-0.08251953125,1.40380859375,0.404357910156,-0.419616699219
1534594030.130.937744140625,-0.398681640625,-0.086669921875,1.49536132812,0.511169433594,-0.274658203125
1534594030.130.931396484375,-0.400390625,-0.073486328125,1.44958496094,0.48828125,-0.221252441406
1534594030.130.93408203125,-0.3994140625,-0.082275390625,1.39617919922,0.518798828125,-0.3662109375
1534594030.140.93896484375,-0.40185546875,-0.083251953125,1.60217285156,0.465393066406,-0.282287597656
1534594030.140.929443359375,-0.402587890625,-0.079833984375,1.5869140625,0.404357910156,-0.48828125
1534594030.140.9384765625,-0.39990234375,-0.0791015625,1.5869140625,0.694274902344,-0.320434570312
1534594030.150.93994140625,-0.405029296875,-0.086181640625,1.46484375,0.42724609375,-0.30517578125
1534594030.150.934814453125,-0.404296875,-0.084228515625,1.28936767578,0.572204589844,-0.289916992188
1534594030.150.935546875,-0.39990234375,-0.086181640625,1.89208984375,0.572204589844,-0.495910644531
1534594030.150.93310546875,-0.395263671875,-0.08056640625,1.54876708984,0.457763671875,-0.236511230469
1534594030.160.93310546875,-0.40478515625,-0.080322265625,1.74713134766,0.282287597656,-0.244140625
1534594030.160.9345703125,-0.403076171875,-0.0869140625,1.38854980469,0.373840332031,-0.381469726562
1534594030.160.93310546875,-0.4013671875,-0.076171875,1.23596191406,0.602722167969,-0.350952148438
1534594030.160.933837890625,-0.39990234375,-0.081298828125,1.64794921875,0.595092773438,-0.381469726562
1534594030.170.935546875,-0.40234375,-0.079833984375,1.51062011719,0.572204589844,-0.312805175781
